subj,session,trial,rt,object_response,category,condition,imagename
AlexNet_topK_30,1,1,NaN,knife,airplane,NaN,airplane1-bicycle2.png
AlexNet_topK_30,1,2,NaN,chair,airplane,NaN,airplane1-chair2.png
AlexNet_topK_30,1,3,NaN,cat,airplane,NaN,airplane1-clock1.png
AlexNet_topK_30,1,4,NaN,boat,airplane,NaN,airplane1-elephant1.png
AlexNet_topK_30,1,5,NaN,bear,airplane,NaN,airplane10-airplane1.png
AlexNet_topK_30,1,6,NaN,chair,airplane,NaN,airplane10-bear3.png
AlexNet_topK_30,1,7,NaN,oven,airplane,NaN,airplane10-boat3.png
AlexNet_topK_30,1,8,NaN,chair,airplane,NaN,airplane10-car3.png
AlexNet_topK_30,1,9,NaN,elephant,airplane,NaN,airplane10-cat2.png
AlexNet_topK_30,1,10,NaN,chair,airplane,NaN,airplane10-dog3.png
AlexNet_topK_30,1,11,NaN,elephant,airplane,NaN,airplane10-elephant1.png
AlexNet_topK_30,1,12,NaN,dog,airplane,NaN,airplane10-knife3.png
AlexNet_topK_30,1,13,NaN,chair,airplane,NaN,airplane10-oven2.png
AlexNet_topK_30,1,14,NaN,chair,airplane,NaN,airplane10-truck1.png
AlexNet_topK_30,1,15,NaN,elephant,airplane,NaN,airplane2-bear1.png
AlexNet_topK_30,1,16,NaN,cat,airplane,NaN,airplane2-bicycle1.png
AlexNet_topK_30,1,17,NaN,bear,airplane,NaN,airplane2-bird3.png
AlexNet_topK_30,1,18,NaN,cat,airplane,NaN,airplane2-bottle1.png
AlexNet_topK_30,1,19,NaN,cat,airplane,NaN,airplane2-cat1.png
AlexNet_topK_30,1,20,NaN,knife,airplane,NaN,airplane2-dog1.png
AlexNet_topK_30,1,21,NaN,oven,airplane,NaN,airplane3-airplane2.png
AlexNet_topK_30,1,22,NaN,chair,airplane,NaN,airplane3-car1.png
AlexNet_topK_30,1,23,NaN,oven,airplane,NaN,airplane3-cat1.png
AlexNet_topK_30,1,24,NaN,chair,airplane,NaN,airplane3-chair3.png
AlexNet_topK_30,1,25,NaN,cat,airplane,NaN,airplane3-clock1.png
AlexNet_topK_30,1,26,NaN,elephant,airplane,NaN,airplane3-dog1.png
AlexNet_topK_30,1,27,NaN,bicycle,airplane,NaN,airplane3-elephant1.png
AlexNet_topK_30,1,28,NaN,cat,airplane,NaN,airplane3-keyboard2.png
AlexNet_topK_30,1,29,NaN,cat,airplane,NaN,airplane3-oven1.png
AlexNet_topK_30,1,30,NaN,chair,airplane,NaN,airplane4-airplane1.png
AlexNet_topK_30,1,31,NaN,oven,airplane,NaN,airplane4-bear3.png
AlexNet_topK_30,1,32,NaN,bear,airplane,NaN,airplane4-bicycle2.png
AlexNet_topK_30,1,33,NaN,elephant,airplane,NaN,airplane4-bird3.png
AlexNet_topK_30,1,34,NaN,chair,airplane,NaN,airplane4-boat3.png
AlexNet_topK_30,1,35,NaN,boat,airplane,NaN,airplane4-bottle1.png
AlexNet_topK_30,1,36,NaN,elephant,airplane,NaN,airplane4-car1.png
AlexNet_topK_30,1,37,NaN,cat,airplane,NaN,airplane4-cat3.png
AlexNet_topK_30,1,38,NaN,boat,airplane,NaN,airplane4-dog2.png
AlexNet_topK_30,1,39,NaN,oven,airplane,NaN,airplane4-elephant1.png
AlexNet_topK_30,1,40,NaN,cat,airplane,NaN,airplane4-keyboard3.png
AlexNet_topK_30,1,41,NaN,airplane,airplane,NaN,airplane4-knife1.png
AlexNet_topK_30,1,42,NaN,cat,airplane,NaN,airplane4-truck2.png
AlexNet_topK_30,1,43,NaN,chair,airplane,NaN,airplane5-bear2.png
AlexNet_topK_30,1,44,NaN,cat,airplane,NaN,airplane5-bicycle1.png
AlexNet_topK_30,1,45,NaN,chair,airplane,NaN,airplane5-bird2.png
AlexNet_topK_30,1,46,NaN,chair,airplane,NaN,airplane5-boat3.png
AlexNet_topK_30,1,47,NaN,knife,airplane,NaN,airplane5-bottle3.png
AlexNet_topK_30,1,48,NaN,cat,airplane,NaN,airplane5-chair3.png
AlexNet_topK_30,1,49,NaN,knife,airplane,NaN,airplane5-dog3.png
AlexNet_topK_30,1,50,NaN,knife,airplane,NaN,airplane5-knife1.png
AlexNet_topK_30,1,51,NaN,chair,airplane,NaN,airplane5-oven3.png
AlexNet_topK_30,1,52,NaN,elephant,airplane,NaN,airplane6-bear3.png
AlexNet_topK_30,1,53,NaN,oven,airplane,NaN,airplane6-bottle2.png
AlexNet_topK_30,1,54,NaN,cat,airplane,NaN,airplane6-chair3.png
AlexNet_topK_30,1,55,NaN,oven,airplane,NaN,airplane6-keyboard3.png
AlexNet_topK_30,1,56,NaN,airplane,airplane,NaN,airplane6-knife1.png
AlexNet_topK_30,1,57,NaN,chair,airplane,NaN,airplane7-airplane3.png
AlexNet_topK_30,1,58,NaN,oven,airplane,NaN,airplane7-bird3.png
AlexNet_topK_30,1,59,NaN,knife,airplane,NaN,airplane7-boat2.png
AlexNet_topK_30,1,60,NaN,bottle,airplane,NaN,airplane7-bottle3.png
AlexNet_topK_30,1,61,NaN,elephant,airplane,NaN,airplane7-car1.png
AlexNet_topK_30,1,62,NaN,chair,airplane,NaN,airplane7-cat3.png
AlexNet_topK_30,1,63,NaN,boat,airplane,NaN,airplane7-clock3.png
AlexNet_topK_30,1,64,NaN,chair,airplane,NaN,airplane7-keyboard1.png
AlexNet_topK_30,1,65,NaN,bottle,airplane,NaN,airplane7-truck1.png
AlexNet_topK_30,1,66,NaN,chair,airplane,NaN,airplane8-bicycle3.png
AlexNet_topK_30,1,67,NaN,oven,airplane,NaN,airplane8-bird1.png
AlexNet_topK_30,1,68,NaN,chair,airplane,NaN,airplane8-chair1.png
AlexNet_topK_30,1,69,NaN,bottle,airplane,NaN,airplane8-clock2.png
AlexNet_topK_30,1,70,NaN,clock,airplane,NaN,airplane8-elephant3.png
AlexNet_topK_30,1,71,NaN,chair,airplane,NaN,airplane8-oven2.png
AlexNet_topK_30,1,72,NaN,bear,airplane,NaN,airplane8-truck3.png
AlexNet_topK_30,1,73,NaN,chair,airplane,NaN,airplane9-airplane2.png
AlexNet_topK_30,1,74,NaN,knife,airplane,NaN,airplane9-boat1.png
AlexNet_topK_30,1,75,NaN,oven,airplane,NaN,airplane9-car2.png
AlexNet_topK_30,1,76,NaN,airplane,airplane,NaN,airplane9-clock1.png
AlexNet_topK_30,1,77,NaN,chair,airplane,NaN,airplane9-keyboard2.png
AlexNet_topK_30,1,78,NaN,chair,airplane,NaN,airplane9-knife3.png
AlexNet_topK_30,1,79,NaN,chair,airplane,NaN,airplane9-oven2.png
AlexNet_topK_30,1,80,NaN,chair,airplane,NaN,airplane9-truck1.png
AlexNet_topK_30,1,81,NaN,chair,bear,NaN,bear1-airplane3.png
AlexNet_topK_30,1,82,NaN,bear,bear,NaN,bear1-bear3.png
AlexNet_topK_30,1,83,NaN,cat,bear,NaN,bear1-bicycle3.png
AlexNet_topK_30,1,84,NaN,bear,bear,NaN,bear1-bird2.png
AlexNet_topK_30,1,85,NaN,knife,bear,NaN,bear1-chair2.png
AlexNet_topK_30,1,86,NaN,cat,bear,NaN,bear1-clock2.png
AlexNet_topK_30,1,87,NaN,knife,bear,NaN,bear1-elephant1.png
AlexNet_topK_30,1,88,NaN,elephant,bear,NaN,bear10-bear2.png
AlexNet_topK_30,1,89,NaN,bird,bear,NaN,bear10-bottle1.png
AlexNet_topK_30,1,90,NaN,elephant,bear,NaN,bear10-car2.png
AlexNet_topK_30,1,91,NaN,cat,bear,NaN,bear10-cat2.png
AlexNet_topK_30,1,92,NaN,cat,bear,NaN,bear10-chair2.png
AlexNet_topK_30,1,93,NaN,chair,bear,NaN,bear10-clock1.png
AlexNet_topK_30,1,94,NaN,chair,bear,NaN,bear10-elephant1.png
AlexNet_topK_30,1,95,NaN,bear,bear,NaN,bear10-keyboard3.png
AlexNet_topK_30,1,96,NaN,cat,bear,NaN,bear10-knife2.png
AlexNet_topK_30,1,97,NaN,bear,bear,NaN,bear10-oven1.png
AlexNet_topK_30,1,98,NaN,chair,bear,NaN,bear10-truck1.png
AlexNet_topK_30,1,99,NaN,chair,bear,NaN,bear2-airplane1.png
AlexNet_topK_30,1,100,NaN,knife,bear,NaN,bear2-bird3.png
AlexNet_topK_30,1,101,NaN,chair,bear,NaN,bear2-car2.png
AlexNet_topK_30,1,102,NaN,keyboard,bear,NaN,bear2-cat2.png
AlexNet_topK_30,1,103,NaN,chair,bear,NaN,bear2-dog1.png
AlexNet_topK_30,1,104,NaN,bear,bear,NaN,bear2-elephant1.png
AlexNet_topK_30,1,105,NaN,cat,bear,NaN,bear2-keyboard2.png
AlexNet_topK_30,1,106,NaN,knife,bear,NaN,bear2-knife2.png
AlexNet_topK_30,1,107,NaN,elephant,bear,NaN,bear2-oven1.png
AlexNet_topK_30,1,108,NaN,elephant,bear,NaN,bear3-airplane1.png
AlexNet_topK_30,1,109,NaN,boat,bear,NaN,bear3-bicycle2.png
AlexNet_topK_30,1,110,NaN,elephant,bear,NaN,bear3-bird3.png
AlexNet_topK_30,1,111,NaN,chair,bear,NaN,bear3-car2.png
AlexNet_topK_30,1,112,NaN,chair,bear,NaN,bear3-cat1.png
AlexNet_topK_30,1,113,NaN,bear,bear,NaN,bear3-chair2.png
AlexNet_topK_30,1,114,NaN,cat,bear,NaN,bear3-dog3.png
AlexNet_topK_30,1,115,NaN,bear,bear,NaN,bear3-keyboard2.png
AlexNet_topK_30,1,116,NaN,bear,bear,NaN,bear3-truck3.png
AlexNet_topK_30,1,117,NaN,bear,bear,NaN,bear4-boat2.png
AlexNet_topK_30,1,118,NaN,chair,bear,NaN,bear4-car3.png
AlexNet_topK_30,1,119,NaN,cat,bear,NaN,bear4-cat3.png
AlexNet_topK_30,1,120,NaN,bottle,bear,NaN,bear4-clock3.png
AlexNet_topK_30,1,121,NaN,cat,bear,NaN,bear4-elephant2.png
AlexNet_topK_30,1,122,NaN,elephant,bear,NaN,bear4-keyboard3.png
AlexNet_topK_30,1,123,NaN,cat,bear,NaN,bear4-knife1.png
AlexNet_topK_30,1,124,NaN,elephant,bear,NaN,bear4-oven2.png
AlexNet_topK_30,1,125,NaN,clock,bear,NaN,bear4-truck3.png
AlexNet_topK_30,1,126,NaN,boat,bear,NaN,bear5-airplane3.png
AlexNet_topK_30,1,127,NaN,chair,bear,NaN,bear5-bicycle3.png
AlexNet_topK_30,1,128,NaN,bear,bear,NaN,bear5-bird1.png
AlexNet_topK_30,1,129,NaN,cat,bear,NaN,bear5-boat2.png
AlexNet_topK_30,1,130,NaN,chair,bear,NaN,bear5-bottle1.png
AlexNet_topK_30,1,131,NaN,elephant,bear,NaN,bear5-chair1.png
AlexNet_topK_30,1,132,NaN,bear,bear,NaN,bear5-oven3.png
AlexNet_topK_30,1,133,NaN,chair,bear,NaN,bear6-bear1.png
AlexNet_topK_30,1,134,NaN,chair,bear,NaN,bear6-bird2.png
AlexNet_topK_30,1,135,NaN,chair,bear,NaN,bear6-boat3.png
AlexNet_topK_30,1,136,NaN,bottle,bear,NaN,bear6-bottle3.png
AlexNet_topK_30,1,137,NaN,chair,bear,NaN,bear6-car2.png
AlexNet_topK_30,1,138,NaN,bear,bear,NaN,bear6-cat3.png
AlexNet_topK_30,1,139,NaN,chair,bear,NaN,bear6-chair1.png
AlexNet_topK_30,1,140,NaN,boat,bear,NaN,bear6-clock1.png
AlexNet_topK_30,1,141,NaN,oven,bear,NaN,bear7-bear2.png
AlexNet_topK_30,1,142,NaN,bicycle,bear,NaN,bear7-bicycle2.png
AlexNet_topK_30,1,143,NaN,boat,bear,NaN,bear7-clock1.png
AlexNet_topK_30,1,144,NaN,elephant,bear,NaN,bear7-dog3.png
AlexNet_topK_30,1,145,NaN,cat,bear,NaN,bear7-oven3.png
AlexNet_topK_30,1,146,NaN,oven,bear,NaN,bear7-truck1.png
AlexNet_topK_30,1,147,NaN,bear,bear,NaN,bear8-airplane1.png
AlexNet_topK_30,1,148,NaN,oven,bear,NaN,bear8-bear1.png
AlexNet_topK_30,1,149,NaN,chair,bear,NaN,bear8-bicycle3.png
AlexNet_topK_30,1,150,NaN,knife,bear,NaN,bear8-boat2.png
AlexNet_topK_30,1,151,NaN,chair,bear,NaN,bear8-bottle1.png
AlexNet_topK_30,1,152,NaN,boat,bear,NaN,bear8-dog1.png
AlexNet_topK_30,1,153,NaN,cat,bear,NaN,bear8-elephant2.png
AlexNet_topK_30,1,154,NaN,bear,bear,NaN,bear8-knife3.png
AlexNet_topK_30,1,155,NaN,bear,bear,NaN,bear8-truck3.png
AlexNet_topK_30,1,156,NaN,oven,bear,NaN,bear9-boat2.png
AlexNet_topK_30,1,157,NaN,elephant,bear,NaN,bear9-bottle2.png
AlexNet_topK_30,1,158,NaN,chair,bear,NaN,bear9-dog1.png
AlexNet_topK_30,1,159,NaN,elephant,bear,NaN,bear9-keyboard3.png
AlexNet_topK_30,1,160,NaN,cat,bear,NaN,bear9-knife2.png
AlexNet_topK_30,1,161,NaN,bear,bicycle,NaN,bicycle1-airplane2.png
AlexNet_topK_30,1,162,NaN,cat,bicycle,NaN,bicycle1-bear1.png
AlexNet_topK_30,1,163,NaN,elephant,bicycle,NaN,bicycle1-bicycle3.png
AlexNet_topK_30,1,164,NaN,bear,bicycle,NaN,bicycle1-bird1.png
AlexNet_topK_30,1,165,NaN,bear,bicycle,NaN,bicycle1-boat3.png
AlexNet_topK_30,1,166,NaN,airplane,bicycle,NaN,bicycle1-bottle3.png
AlexNet_topK_30,1,167,NaN,knife,bicycle,NaN,bicycle1-chair1.png
AlexNet_topK_30,1,168,NaN,truck,bicycle,NaN,bicycle1-clock3.png
AlexNet_topK_30,1,169,NaN,bear,bicycle,NaN,bicycle1-dog3.png
AlexNet_topK_30,1,170,NaN,cat,bicycle,NaN,bicycle1-elephant2.png
AlexNet_topK_30,1,171,NaN,cat,bicycle,NaN,bicycle1-knife3.png
AlexNet_topK_30,1,172,NaN,oven,bicycle,NaN,bicycle1-oven1.png
AlexNet_topK_30,1,173,NaN,oven,bicycle,NaN,bicycle1-truck1.png
AlexNet_topK_30,1,174,NaN,oven,bicycle,NaN,bicycle10-airplane2.png
AlexNet_topK_30,1,175,NaN,truck,bicycle,NaN,bicycle10-boat3.png
AlexNet_topK_30,1,176,NaN,chair,bicycle,NaN,bicycle10-clock2.png
AlexNet_topK_30,1,177,NaN,knife,bicycle,NaN,bicycle10-dog3.png
AlexNet_topK_30,1,178,NaN,chair,bicycle,NaN,bicycle10-elephant2.png
AlexNet_topK_30,1,179,NaN,knife,bicycle,NaN,bicycle2-bicycle1.png
AlexNet_topK_30,1,180,NaN,bear,bicycle,NaN,bicycle2-bird3.png
AlexNet_topK_30,1,181,NaN,bear,bicycle,NaN,bicycle2-bottle1.png
AlexNet_topK_30,1,182,NaN,cat,bicycle,NaN,bicycle2-car2.png
AlexNet_topK_30,1,183,NaN,bear,bicycle,NaN,bicycle2-dog1.png
AlexNet_topK_30,1,184,NaN,chair,bicycle,NaN,bicycle2-keyboard2.png
AlexNet_topK_30,1,185,NaN,chair,bicycle,NaN,bicycle2-knife2.png
AlexNet_topK_30,1,186,NaN,elephant,bicycle,NaN,bicycle3-bird1.png
AlexNet_topK_30,1,187,NaN,chair,bicycle,NaN,bicycle3-elephant2.png
AlexNet_topK_30,1,188,NaN,boat,bicycle,NaN,bicycle3-keyboard1.png
AlexNet_topK_30,1,189,NaN,chair,bicycle,NaN,bicycle3-oven3.png
AlexNet_topK_30,1,190,NaN,airplane,bicycle,NaN,bicycle3-truck3.png
AlexNet_topK_30,1,191,NaN,cat,bicycle,NaN,bicycle4-airplane1.png
AlexNet_topK_30,1,192,NaN,chair,bicycle,NaN,bicycle4-bicycle3.png
AlexNet_topK_30,1,193,NaN,cat,bicycle,NaN,bicycle4-boat1.png
AlexNet_topK_30,1,194,NaN,cat,bicycle,NaN,bicycle4-bottle1.png
AlexNet_topK_30,1,195,NaN,chair,bicycle,NaN,bicycle4-car2.png
AlexNet_topK_30,1,196,NaN,cat,bicycle,NaN,bicycle4-cat1.png
AlexNet_topK_30,1,197,NaN,elephant,bicycle,NaN,bicycle4-chair2.png
AlexNet_topK_30,1,198,NaN,airplane,bicycle,NaN,bicycle4-clock3.png
AlexNet_topK_30,1,199,NaN,oven,bicycle,NaN,bicycle4-keyboard3.png
AlexNet_topK_30,1,200,NaN,oven,bicycle,NaN,bicycle4-knife3.png
AlexNet_topK_30,1,201,NaN,bear,bicycle,NaN,bicycle4-oven3.png
AlexNet_topK_30,1,202,NaN,knife,bicycle,NaN,bicycle4-truck3.png
AlexNet_topK_30,1,203,NaN,cat,bicycle,NaN,bicycle5-bear1.png
AlexNet_topK_30,1,204,NaN,elephant,bicycle,NaN,bicycle5-bottle3.png
AlexNet_topK_30,1,205,NaN,chair,bicycle,NaN,bicycle5-car3.png
AlexNet_topK_30,1,206,NaN,cat,bicycle,NaN,bicycle5-cat1.png
AlexNet_topK_30,1,207,NaN,chair,bicycle,NaN,bicycle5-chair2.png
AlexNet_topK_30,1,208,NaN,bird,bicycle,NaN,bicycle5-dog2.png
AlexNet_topK_30,1,209,NaN,chair,bicycle,NaN,bicycle5-elephant1.png
AlexNet_topK_30,1,210,NaN,elephant,bicycle,NaN,bicycle5-keyboard3.png
AlexNet_topK_30,1,211,NaN,oven,bicycle,NaN,bicycle5-oven3.png
AlexNet_topK_30,1,212,NaN,cat,bicycle,NaN,bicycle6-airplane2.png
AlexNet_topK_30,1,213,NaN,elephant,bicycle,NaN,bicycle6-bicycle3.png
AlexNet_topK_30,1,214,NaN,elephant,bicycle,NaN,bicycle6-boat2.png
AlexNet_topK_30,1,215,NaN,cat,bicycle,NaN,bicycle6-car2.png
AlexNet_topK_30,1,216,NaN,chair,bicycle,NaN,bicycle6-cat1.png
AlexNet_topK_30,1,217,NaN,oven,bicycle,NaN,bicycle6-dog2.png
AlexNet_topK_30,1,218,NaN,bicycle,bicycle,NaN,bicycle7-bear2.png
AlexNet_topK_30,1,219,NaN,airplane,bicycle,NaN,bicycle7-bicycle2.png
AlexNet_topK_30,1,220,NaN,bottle,bicycle,NaN,bicycle7-cat1.png
AlexNet_topK_30,1,221,NaN,chair,bicycle,NaN,bicycle7-clock3.png
AlexNet_topK_30,1,222,NaN,truck,bicycle,NaN,bicycle7-elephant2.png
AlexNet_topK_30,1,223,NaN,cat,bicycle,NaN,bicycle7-knife2.png
AlexNet_topK_30,1,224,NaN,truck,bicycle,NaN,bicycle7-oven1.png
AlexNet_topK_30,1,225,NaN,chair,bicycle,NaN,bicycle7-truck3.png
AlexNet_topK_30,1,226,NaN,elephant,bicycle,NaN,bicycle8-bear2.png
AlexNet_topK_30,1,227,NaN,chair,bicycle,NaN,bicycle8-bird2.png
AlexNet_topK_30,1,228,NaN,elephant,bicycle,NaN,bicycle8-boat1.png
AlexNet_topK_30,1,229,NaN,cat,bicycle,NaN,bicycle8-chair2.png
AlexNet_topK_30,1,230,NaN,chair,bicycle,NaN,bicycle8-clock3.png
AlexNet_topK_30,1,231,NaN,cat,bicycle,NaN,bicycle8-truck1.png
AlexNet_topK_30,1,232,NaN,knife,bicycle,NaN,bicycle9-airplane2.png
AlexNet_topK_30,1,233,NaN,chair,bicycle,NaN,bicycle9-bear1.png
AlexNet_topK_30,1,234,NaN,cat,bicycle,NaN,bicycle9-bird3.png
AlexNet_topK_30,1,235,NaN,truck,bicycle,NaN,bicycle9-bottle1.png
AlexNet_topK_30,1,236,NaN,chair,bicycle,NaN,bicycle9-car1.png
AlexNet_topK_30,1,237,NaN,chair,bicycle,NaN,bicycle9-cat3.png
AlexNet_topK_30,1,238,NaN,knife,bicycle,NaN,bicycle9-chair1.png
AlexNet_topK_30,1,239,NaN,elephant,bicycle,NaN,bicycle9-keyboard3.png
AlexNet_topK_30,1,240,NaN,bear,bicycle,NaN,bicycle9-knife3.png
AlexNet_topK_30,1,241,NaN,bottle,bird,NaN,bird1-airplane2.png
AlexNet_topK_30,1,242,NaN,elephant,bird,NaN,bird1-bear1.png
AlexNet_topK_30,1,243,NaN,knife,bird,NaN,bird1-bicycle2.png
AlexNet_topK_30,1,244,NaN,bottle,bird,NaN,bird1-boat1.png
AlexNet_topK_30,1,245,NaN,cat,bird,NaN,bird1-chair2.png
AlexNet_topK_30,1,246,NaN,knife,bird,NaN,bird1-clock3.png
AlexNet_topK_30,1,247,NaN,chair,bird,NaN,bird1-elephant2.png
AlexNet_topK_30,1,248,NaN,elephant,bird,NaN,bird1-keyboard3.png
AlexNet_topK_30,1,249,NaN,chair,bird,NaN,bird1-knife3.png
AlexNet_topK_30,1,250,NaN,oven,bird,NaN,bird1-oven1.png
AlexNet_topK_30,1,251,NaN,oven,bird,NaN,bird1-truck1.png
AlexNet_topK_30,1,252,NaN,cat,bird,NaN,bird10-bear2.png
AlexNet_topK_30,1,253,NaN,cat,bird,NaN,bird10-bicycle1.png
AlexNet_topK_30,1,254,NaN,dog,bird,NaN,bird10-bird2.png
AlexNet_topK_30,1,255,NaN,cat,bird,NaN,bird10-cat1.png
AlexNet_topK_30,1,256,NaN,boat,bird,NaN,bird10-chair1.png
AlexNet_topK_30,1,257,NaN,knife,bird,NaN,bird10-clock1.png
AlexNet_topK_30,1,258,NaN,bear,bird,NaN,bird10-elephant2.png
AlexNet_topK_30,1,259,NaN,oven,bird,NaN,bird2-airplane3.png
AlexNet_topK_30,1,260,NaN,chair,bird,NaN,bird2-bird2.png
AlexNet_topK_30,1,261,NaN,chair,bird,NaN,bird2-car3.png
AlexNet_topK_30,1,262,NaN,knife,bird,NaN,bird2-clock3.png
AlexNet_topK_30,1,263,NaN,cat,bird,NaN,bird2-dog2.png
AlexNet_topK_30,1,264,NaN,elephant,bird,NaN,bird2-knife1.png
AlexNet_topK_30,1,265,NaN,chair,bird,NaN,bird3-bear3.png
AlexNet_topK_30,1,266,NaN,elephant,bird,NaN,bird3-bird2.png
AlexNet_topK_30,1,267,NaN,knife,bird,NaN,bird3-boat3.png
AlexNet_topK_30,1,268,NaN,cat,bird,NaN,bird3-bottle2.png
AlexNet_topK_30,1,269,NaN,oven,bird,NaN,bird3-cat1.png
AlexNet_topK_30,1,270,NaN,chair,bird,NaN,bird3-dog1.png
AlexNet_topK_30,1,271,NaN,oven,bird,NaN,bird3-knife3.png
AlexNet_topK_30,1,272,NaN,oven,bird,NaN,bird3-oven1.png
AlexNet_topK_30,1,273,NaN,knife,bird,NaN,bird3-truck3.png
AlexNet_topK_30,1,274,NaN,chair,bird,NaN,bird4-airplane1.png
AlexNet_topK_30,1,275,NaN,clock,bird,NaN,bird4-bicycle2.png
AlexNet_topK_30,1,276,NaN,elephant,bird,NaN,bird4-cat3.png
AlexNet_topK_30,1,277,NaN,cat,bird,NaN,bird4-clock1.png
AlexNet_topK_30,1,278,NaN,chair,bird,NaN,bird4-dog3.png
AlexNet_topK_30,1,279,NaN,chair,bird,NaN,bird5-airplane3.png
AlexNet_topK_30,1,280,NaN,bear,bird,NaN,bird5-bear3.png
AlexNet_topK_30,1,281,NaN,oven,bird,NaN,bird5-bicycle1.png
AlexNet_topK_30,1,282,NaN,bear,bird,NaN,bird5-bird1.png
AlexNet_topK_30,1,283,NaN,chair,bird,NaN,bird5-car2.png
AlexNet_topK_30,1,284,NaN,chair,bird,NaN,bird5-cat2.png
AlexNet_topK_30,1,285,NaN,cat,bird,NaN,bird5-chair1.png
AlexNet_topK_30,1,286,NaN,knife,bird,NaN,bird5-dog2.png
AlexNet_topK_30,1,287,NaN,chair,bird,NaN,bird5-keyboard2.png
AlexNet_topK_30,1,288,NaN,cat,bird,NaN,bird5-oven3.png
AlexNet_topK_30,1,289,NaN,cat,bird,NaN,bird5-truck2.png
AlexNet_topK_30,1,290,NaN,elephant,bird,NaN,bird6-airplane2.png
AlexNet_topK_30,1,291,NaN,chair,bird,NaN,bird6-boat2.png
AlexNet_topK_30,1,292,NaN,cat,bird,NaN,bird6-bottle3.png
AlexNet_topK_30,1,293,NaN,chair,bird,NaN,bird6-car3.png
AlexNet_topK_30,1,294,NaN,knife,bird,NaN,bird6-elephant2.png
AlexNet_topK_30,1,295,NaN,elephant,bird,NaN,bird6-oven1.png
AlexNet_topK_30,1,296,NaN,chair,bird,NaN,bird6-truck2.png
AlexNet_topK_30,1,297,NaN,bottle,bird,NaN,bird7-bird2.png
AlexNet_topK_30,1,298,NaN,bird,bird,NaN,bird7-boat1.png
AlexNet_topK_30,1,299,NaN,chair,bird,NaN,bird7-bottle1.png
AlexNet_topK_30,1,300,NaN,chair,bird,NaN,bird7-car2.png
AlexNet_topK_30,1,301,NaN,chair,bird,NaN,bird7-cat3.png
AlexNet_topK_30,1,302,NaN,chair,bird,NaN,bird7-keyboard3.png
AlexNet_topK_30,1,303,NaN,chair,bird,NaN,bird7-knife2.png
AlexNet_topK_30,1,304,NaN,knife,bird,NaN,bird7-oven3.png
AlexNet_topK_30,1,305,NaN,cat,bird,NaN,bird7-truck2.png
AlexNet_topK_30,1,306,NaN,elephant,bird,NaN,bird8-boat3.png
AlexNet_topK_30,1,307,NaN,knife,bird,NaN,bird8-bottle1.png
AlexNet_topK_30,1,308,NaN,elephant,bird,NaN,bird8-car2.png
AlexNet_topK_30,1,309,NaN,knife,bird,NaN,bird8-chair1.png
AlexNet_topK_30,1,310,NaN,elephant,bird,NaN,bird8-clock1.png
AlexNet_topK_30,1,311,NaN,bear,bird,NaN,bird8-elephant1.png
AlexNet_topK_30,1,312,NaN,knife,bird,NaN,bird8-keyboard2.png
AlexNet_topK_30,1,313,NaN,knife,bird,NaN,bird8-knife2.png
AlexNet_topK_30,1,314,NaN,knife,bird,NaN,bird9-bear3.png
AlexNet_topK_30,1,315,NaN,bear,bird,NaN,bird9-bicycle3.png
AlexNet_topK_30,1,316,NaN,knife,bird,NaN,bird9-bottle3.png
AlexNet_topK_30,1,317,NaN,chair,bird,NaN,bird9-chair1.png
AlexNet_topK_30,1,318,NaN,oven,bird,NaN,bird9-dog2.png
AlexNet_topK_30,1,319,NaN,chair,bird,NaN,bird9-elephant2.png
AlexNet_topK_30,1,320,NaN,bear,bird,NaN,bird9-keyboard1.png
AlexNet_topK_30,1,321,NaN,knife,boat,NaN,boat1-bear1.png
AlexNet_topK_30,1,322,NaN,cat,boat,NaN,boat1-bicycle2.png
AlexNet_topK_30,1,323,NaN,oven,boat,NaN,boat1-bird3.png
AlexNet_topK_30,1,324,NaN,knife,boat,NaN,boat1-car2.png
AlexNet_topK_30,1,325,NaN,cat,boat,NaN,boat1-chair3.png
AlexNet_topK_30,1,326,NaN,elephant,boat,NaN,boat1-elephant3.png
AlexNet_topK_30,1,327,NaN,bear,boat,NaN,boat1-keyboard3.png
AlexNet_topK_30,1,328,NaN,bottle,boat,NaN,boat1-oven1.png
AlexNet_topK_30,1,329,NaN,bear,boat,NaN,boat1-truck3.png
AlexNet_topK_30,1,330,NaN,elephant,boat,NaN,boat10-bear3.png
AlexNet_topK_30,1,331,NaN,chair,boat,NaN,boat10-boat3.png
AlexNet_topK_30,1,332,NaN,bird,boat,NaN,boat10-cat1.png
AlexNet_topK_30,1,333,NaN,bird,boat,NaN,boat10-oven1.png
AlexNet_topK_30,1,334,NaN,cat,boat,NaN,boat10-truck1.png
AlexNet_topK_30,1,335,NaN,cat,boat,NaN,boat2-airplane1.png
AlexNet_topK_30,1,336,NaN,elephant,boat,NaN,boat2-bear3.png
AlexNet_topK_30,1,337,NaN,cat,boat,NaN,boat2-bird1.png
AlexNet_topK_30,1,338,NaN,elephant,boat,NaN,boat2-bottle2.png
AlexNet_topK_30,1,339,NaN,elephant,boat,NaN,boat2-keyboard1.png
AlexNet_topK_30,1,340,NaN,bear,boat,NaN,boat2-oven3.png
AlexNet_topK_30,1,341,NaN,elephant,boat,NaN,boat3-airplane2.png
AlexNet_topK_30,1,342,NaN,knife,boat,NaN,boat3-bicycle2.png
AlexNet_topK_30,1,343,NaN,chair,boat,NaN,boat3-car3.png
AlexNet_topK_30,1,344,NaN,bear,boat,NaN,boat3-cat3.png
AlexNet_topK_30,1,345,NaN,knife,boat,NaN,boat3-chair3.png
AlexNet_topK_30,1,346,NaN,elephant,boat,NaN,boat3-clock3.png
AlexNet_topK_30,1,347,NaN,knife,boat,NaN,boat3-dog3.png
AlexNet_topK_30,1,348,NaN,cat,boat,NaN,boat3-keyboard2.png
AlexNet_topK_30,1,349,NaN,elephant,boat,NaN,boat4-bicycle3.png
AlexNet_topK_30,1,350,NaN,bear,boat,NaN,boat4-bird1.png
AlexNet_topK_30,1,351,NaN,chair,boat,NaN,boat4-boat3.png
AlexNet_topK_30,1,352,NaN,chair,boat,NaN,boat4-bottle2.png
AlexNet_topK_30,1,353,NaN,cat,boat,NaN,boat4-car3.png
AlexNet_topK_30,1,354,NaN,cat,boat,NaN,boat4-chair2.png
AlexNet_topK_30,1,355,NaN,chair,boat,NaN,boat4-dog2.png
AlexNet_topK_30,1,356,NaN,cat,boat,NaN,boat4-elephant2.png
AlexNet_topK_30,1,357,NaN,airplane,boat,NaN,boat4-knife2.png
AlexNet_topK_30,1,358,NaN,bear,boat,NaN,boat5-airplane1.png
AlexNet_topK_30,1,359,NaN,airplane,boat,NaN,boat5-bicycle3.png
AlexNet_topK_30,1,360,NaN,boat,boat,NaN,boat5-boat3.png
AlexNet_topK_30,1,361,NaN,elephant,boat,NaN,boat5-car3.png
AlexNet_topK_30,1,362,NaN,clock,boat,NaN,boat5-clock3.png
AlexNet_topK_30,1,363,NaN,chair,boat,NaN,boat5-knife2.png
AlexNet_topK_30,1,364,NaN,chair,boat,NaN,boat6-airplane2.png
AlexNet_topK_30,1,365,NaN,elephant,boat,NaN,boat6-bear1.png
AlexNet_topK_30,1,366,NaN,elephant,boat,NaN,boat6-bicycle2.png
AlexNet_topK_30,1,367,NaN,cat,boat,NaN,boat6-bottle2.png
AlexNet_topK_30,1,368,NaN,chair,boat,NaN,boat6-car1.png
AlexNet_topK_30,1,369,NaN,cat,boat,NaN,boat6-cat1.png
AlexNet_topK_30,1,370,NaN,elephant,boat,NaN,boat6-clock2.png
AlexNet_topK_30,1,371,NaN,cat,boat,NaN,boat6-dog1.png
AlexNet_topK_30,1,372,NaN,elephant,boat,NaN,boat6-elephant2.png
AlexNet_topK_30,1,373,NaN,boat,boat,NaN,boat6-knife2.png
AlexNet_topK_30,1,374,NaN,elephant,boat,NaN,boat6-truck3.png
AlexNet_topK_30,1,375,NaN,knife,boat,NaN,boat7-boat2.png
AlexNet_topK_30,1,376,NaN,chair,boat,NaN,boat7-bottle1.png
AlexNet_topK_30,1,377,NaN,chair,boat,NaN,boat7-cat3.png
AlexNet_topK_30,1,378,NaN,elephant,boat,NaN,boat7-chair1.png
AlexNet_topK_30,1,379,NaN,elephant,boat,NaN,boat7-clock3.png
AlexNet_topK_30,1,380,NaN,cat,boat,NaN,boat7-elephant3.png
AlexNet_topK_30,1,381,NaN,elephant,boat,NaN,boat7-keyboard3.png
AlexNet_topK_30,1,382,NaN,oven,boat,NaN,boat7-oven3.png
AlexNet_topK_30,1,383,NaN,oven,boat,NaN,boat7-truck2.png
AlexNet_topK_30,1,384,NaN,oven,boat,NaN,boat8-bird2.png
AlexNet_topK_30,1,385,NaN,bear,boat,NaN,boat8-bottle1.png
AlexNet_topK_30,1,386,NaN,bear,boat,NaN,boat8-dog3.png
AlexNet_topK_30,1,387,NaN,chair,boat,NaN,boat8-elephant1.png
AlexNet_topK_30,1,388,NaN,chair,boat,NaN,boat8-knife1.png
AlexNet_topK_30,1,389,NaN,knife,boat,NaN,boat8-oven1.png
AlexNet_topK_30,1,390,NaN,chair,boat,NaN,boat8-truck2.png
AlexNet_topK_30,1,391,NaN,knife,boat,NaN,boat9-airplane2.png
AlexNet_topK_30,1,392,NaN,chair,boat,NaN,boat9-bear3.png
AlexNet_topK_30,1,393,NaN,bear,boat,NaN,boat9-bird1.png
AlexNet_topK_30,1,394,NaN,chair,boat,NaN,boat9-boat3.png
AlexNet_topK_30,1,395,NaN,bear,boat,NaN,boat9-cat3.png
AlexNet_topK_30,1,396,NaN,elephant,boat,NaN,boat9-chair2.png
AlexNet_topK_30,1,397,NaN,oven,boat,NaN,boat9-clock1.png
AlexNet_topK_30,1,398,NaN,cat,boat,NaN,boat9-dog2.png
AlexNet_topK_30,1,399,NaN,knife,boat,NaN,boat9-keyboard2.png
AlexNet_topK_30,1,400,NaN,oven,boat,NaN,boat9-knife2.png
AlexNet_topK_30,1,401,NaN,oven,bottle,NaN,bottle1-bear1.png
AlexNet_topK_30,1,402,NaN,cat,bottle,NaN,bottle1-bird3.png
AlexNet_topK_30,1,403,NaN,oven,bottle,NaN,bottle1-car1.png
AlexNet_topK_30,1,404,NaN,elephant,bottle,NaN,bottle1-cat3.png
AlexNet_topK_30,1,405,NaN,knife,bottle,NaN,bottle1-chair2.png
AlexNet_topK_30,1,406,NaN,chair,bottle,NaN,bottle1-clock1.png
AlexNet_topK_30,1,407,NaN,cat,bottle,NaN,bottle1-dog2.png
AlexNet_topK_30,1,408,NaN,oven,bottle,NaN,bottle1-keyboard3.png
AlexNet_topK_30,1,409,NaN,cat,bottle,NaN,bottle10-bear2.png
AlexNet_topK_30,1,410,NaN,elephant,bottle,NaN,bottle10-boat3.png
AlexNet_topK_30,1,411,NaN,knife,bottle,NaN,bottle10-car1.png
AlexNet_topK_30,1,412,NaN,chair,bottle,NaN,bottle10-clock2.png
AlexNet_topK_30,1,413,NaN,cat,bottle,NaN,bottle10-dog1.png
AlexNet_topK_30,1,414,NaN,cat,bottle,NaN,bottle10-truck3.png
AlexNet_topK_30,1,415,NaN,cat,bottle,NaN,bottle2-bottle3.png
AlexNet_topK_30,1,416,NaN,chair,bottle,NaN,bottle2-car2.png
AlexNet_topK_30,1,417,NaN,cat,bottle,NaN,bottle2-chair3.png
AlexNet_topK_30,1,418,NaN,chair,bottle,NaN,bottle2-clock1.png
AlexNet_topK_30,1,419,NaN,cat,bottle,NaN,bottle2-elephant1.png
AlexNet_topK_30,1,420,NaN,bicycle,bottle,NaN,bottle2-knife3.png
AlexNet_topK_30,1,421,NaN,chair,bottle,NaN,bottle3-airplane2.png
AlexNet_topK_30,1,422,NaN,elephant,bottle,NaN,bottle3-bear2.png
AlexNet_topK_30,1,423,NaN,cat,bottle,NaN,bottle3-bicycle3.png
AlexNet_topK_30,1,424,NaN,chair,bottle,NaN,bottle3-bird1.png
AlexNet_topK_30,1,425,NaN,chair,bottle,NaN,bottle3-boat3.png
AlexNet_topK_30,1,426,NaN,elephant,bottle,NaN,bottle3-bottle3.png
AlexNet_topK_30,1,427,NaN,chair,bottle,NaN,bottle3-cat3.png
AlexNet_topK_30,1,428,NaN,oven,bottle,NaN,bottle3-chair3.png
AlexNet_topK_30,1,429,NaN,oven,bottle,NaN,bottle3-knife3.png
AlexNet_topK_30,1,430,NaN,chair,bottle,NaN,bottle4-airplane1.png
AlexNet_topK_30,1,431,NaN,chair,bottle,NaN,bottle4-bicycle1.png
AlexNet_topK_30,1,432,NaN,cat,bottle,NaN,bottle4-car3.png
AlexNet_topK_30,1,433,NaN,chair,bottle,NaN,bottle4-dog2.png
AlexNet_topK_30,1,434,NaN,boat,bottle,NaN,bottle4-oven2.png
AlexNet_topK_30,1,435,NaN,cat,bottle,NaN,bottle4-truck1.png
AlexNet_topK_30,1,436,NaN,clock,bottle,NaN,bottle5-airplane1.png
AlexNet_topK_30,1,437,NaN,knife,bottle,NaN,bottle5-bird3.png
AlexNet_topK_30,1,438,NaN,airplane,bottle,NaN,bottle5-boat1.png
AlexNet_topK_30,1,439,NaN,bear,bottle,NaN,bottle5-cat1.png
AlexNet_topK_30,1,440,NaN,oven,bottle,NaN,bottle5-chair1.png
AlexNet_topK_30,1,441,NaN,chair,bottle,NaN,bottle5-clock3.png
AlexNet_topK_30,1,442,NaN,chair,bottle,NaN,bottle5-elephant1.png
AlexNet_topK_30,1,443,NaN,chair,bottle,NaN,bottle5-keyboard2.png
AlexNet_topK_30,1,444,NaN,oven,bottle,NaN,bottle5-knife1.png
AlexNet_topK_30,1,445,NaN,chair,bottle,NaN,bottle5-oven2.png
AlexNet_topK_30,1,446,NaN,cat,bottle,NaN,bottle5-truck1.png
AlexNet_topK_30,1,447,NaN,clock,bottle,NaN,bottle6-airplane1.png
AlexNet_topK_30,1,448,NaN,chair,bottle,NaN,bottle6-bear2.png
AlexNet_topK_30,1,449,NaN,chair,bottle,NaN,bottle6-bicycle3.png
AlexNet_topK_30,1,450,NaN,bear,bottle,NaN,bottle6-bird1.png
AlexNet_topK_30,1,451,NaN,knife,bottle,NaN,bottle6-boat3.png
AlexNet_topK_30,1,452,NaN,knife,bottle,NaN,bottle6-bottle3.png
AlexNet_topK_30,1,453,NaN,cat,bottle,NaN,bottle6-chair2.png
AlexNet_topK_30,1,454,NaN,chair,bottle,NaN,bottle6-dog3.png
AlexNet_topK_30,1,455,NaN,cat,bottle,NaN,bottle6-knife3.png
AlexNet_topK_30,1,456,NaN,chair,bottle,NaN,bottle6-oven3.png
AlexNet_topK_30,1,457,NaN,chair,bottle,NaN,bottle7-airplane3.png
AlexNet_topK_30,1,458,NaN,elephant,bottle,NaN,bottle7-bear1.png
AlexNet_topK_30,1,459,NaN,clock,bottle,NaN,bottle7-boat3.png
AlexNet_topK_30,1,460,NaN,chair,bottle,NaN,bottle7-cat2.png
AlexNet_topK_30,1,461,NaN,bear,bottle,NaN,bottle7-clock1.png
AlexNet_topK_30,1,462,NaN,chair,bottle,NaN,bottle7-elephant2.png
AlexNet_topK_30,1,463,NaN,knife,bottle,NaN,bottle7-keyboard2.png
AlexNet_topK_30,1,464,NaN,chair,bottle,NaN,bottle7-oven2.png
AlexNet_topK_30,1,465,NaN,bird,bottle,NaN,bottle7-truck2.png
AlexNet_topK_30,1,466,NaN,bear,bottle,NaN,bottle8-bicycle1.png
AlexNet_topK_30,1,467,NaN,dog,bottle,NaN,bottle8-bird1.png
AlexNet_topK_30,1,468,NaN,chair,bottle,NaN,bottle8-bottle3.png
AlexNet_topK_30,1,469,NaN,cat,bottle,NaN,bottle8-dog2.png
AlexNet_topK_30,1,470,NaN,elephant,bottle,NaN,bottle8-elephant3.png
AlexNet_topK_30,1,471,NaN,bird,bottle,NaN,bottle8-keyboard3.png
AlexNet_topK_30,1,472,NaN,cat,bottle,NaN,bottle8-knife1.png
AlexNet_topK_30,1,473,NaN,chair,bottle,NaN,bottle9-bicycle1.png
AlexNet_topK_30,1,474,NaN,knife,bottle,NaN,bottle9-bottle1.png
AlexNet_topK_30,1,475,NaN,bear,bottle,NaN,bottle9-car3.png
AlexNet_topK_30,1,476,NaN,chair,bottle,NaN,bottle9-cat2.png
AlexNet_topK_30,1,477,NaN,cat,bottle,NaN,bottle9-elephant2.png
AlexNet_topK_30,1,478,NaN,cat,bottle,NaN,bottle9-keyboard1.png
AlexNet_topK_30,1,479,NaN,cat,bottle,NaN,bottle9-oven2.png
AlexNet_topK_30,1,480,NaN,elephant,bottle,NaN,bottle9-truck1.png
AlexNet_topK_30,1,481,NaN,bear,car,NaN,car1-airplane1.png
AlexNet_topK_30,1,482,NaN,clock,car,NaN,car1-car2.png
AlexNet_topK_30,1,483,NaN,cat,car,NaN,car1-chair3.png
AlexNet_topK_30,1,484,NaN,boat,car,NaN,car1-clock2.png
AlexNet_topK_30,1,485,NaN,knife,car,NaN,car1-dog2.png
AlexNet_topK_30,1,486,NaN,knife,car,NaN,car1-keyboard2.png
AlexNet_topK_30,1,487,NaN,airplane,car,NaN,car1-oven3.png
AlexNet_topK_30,1,488,NaN,cat,car,NaN,car10-bicycle2.png
AlexNet_topK_30,1,489,NaN,oven,car,NaN,car10-bottle3.png
AlexNet_topK_30,1,490,NaN,elephant,car,NaN,car10-car1.png
AlexNet_topK_30,1,491,NaN,knife,car,NaN,car10-chair1.png
AlexNet_topK_30,1,492,NaN,cat,car,NaN,car10-dog1.png
AlexNet_topK_30,1,493,NaN,cat,car,NaN,car10-elephant2.png
AlexNet_topK_30,1,494,NaN,knife,car,NaN,car10-keyboard2.png
AlexNet_topK_30,1,495,NaN,chair,car,NaN,car2-bird3.png
AlexNet_topK_30,1,496,NaN,elephant,car,NaN,car2-car3.png
AlexNet_topK_30,1,497,NaN,chair,car,NaN,car2-cat3.png
AlexNet_topK_30,1,498,NaN,chair,car,NaN,car2-chair1.png
AlexNet_topK_30,1,499,NaN,knife,car,NaN,car2-knife3.png
AlexNet_topK_30,1,500,NaN,truck,car,NaN,car3-airplane3.png
AlexNet_topK_30,1,501,NaN,oven,car,NaN,car3-bird2.png
AlexNet_topK_30,1,502,NaN,bear,car,NaN,car3-boat1.png
AlexNet_topK_30,1,503,NaN,bicycle,car,NaN,car3-bottle3.png
AlexNet_topK_30,1,504,NaN,bear,car,NaN,car3-dog2.png
AlexNet_topK_30,1,505,NaN,chair,car,NaN,car3-elephant3.png
AlexNet_topK_30,1,506,NaN,bear,car,NaN,car3-oven3.png
AlexNet_topK_30,1,507,NaN,oven,car,NaN,car3-truck1.png
AlexNet_topK_30,1,508,NaN,bear,car,NaN,car4-bear3.png
AlexNet_topK_30,1,509,NaN,bear,car,NaN,car4-bicycle3.png
AlexNet_topK_30,1,510,NaN,boat,car,NaN,car4-bird1.png
AlexNet_topK_30,1,511,NaN,clock,car,NaN,car4-boat1.png
AlexNet_topK_30,1,512,NaN,bear,car,NaN,car4-bottle1.png
AlexNet_topK_30,1,513,NaN,oven,car,NaN,car4-car2.png
AlexNet_topK_30,1,514,NaN,chair,car,NaN,car4-cat3.png
AlexNet_topK_30,1,515,NaN,chair,car,NaN,car4-clock1.png
AlexNet_topK_30,1,516,NaN,elephant,car,NaN,car4-elephant3.png
AlexNet_topK_30,1,517,NaN,chair,car,NaN,car4-oven2.png
AlexNet_topK_30,1,518,NaN,elephant,car,NaN,car5-airplane3.png
AlexNet_topK_30,1,519,NaN,bear,car,NaN,car5-bear3.png
AlexNet_topK_30,1,520,NaN,chair,car,NaN,car5-bottle1.png
AlexNet_topK_30,1,521,NaN,cat,car,NaN,car5-cat1.png
AlexNet_topK_30,1,522,NaN,bear,car,NaN,car5-keyboard3.png
AlexNet_topK_30,1,523,NaN,bear,car,NaN,car5-knife2.png
AlexNet_topK_30,1,524,NaN,oven,car,NaN,car5-oven2.png
AlexNet_topK_30,1,525,NaN,knife,car,NaN,car5-truck3.png
AlexNet_topK_30,1,526,NaN,knife,car,NaN,car6-bear1.png
AlexNet_topK_30,1,527,NaN,chair,car,NaN,car6-bicycle3.png
AlexNet_topK_30,1,528,NaN,chair,car,NaN,car6-boat1.png
AlexNet_topK_30,1,529,NaN,cat,car,NaN,car6-bottle1.png
AlexNet_topK_30,1,530,NaN,bear,car,NaN,car6-chair3.png
AlexNet_topK_30,1,531,NaN,chair,car,NaN,car6-elephant3.png
AlexNet_topK_30,1,532,NaN,oven,car,NaN,car6-knife1.png
AlexNet_topK_30,1,533,NaN,elephant,car,NaN,car6-truck3.png
AlexNet_topK_30,1,534,NaN,airplane,car,NaN,car7-airplane2.png
AlexNet_topK_30,1,535,NaN,elephant,car,NaN,car7-bear1.png
AlexNet_topK_30,1,536,NaN,oven,car,NaN,car7-bird3.png
AlexNet_topK_30,1,537,NaN,chair,car,NaN,car7-boat3.png
AlexNet_topK_30,1,538,NaN,bear,car,NaN,car7-car1.png
AlexNet_topK_30,1,539,NaN,cat,car,NaN,car7-clock1.png
AlexNet_topK_30,1,540,NaN,cat,car,NaN,car7-dog3.png
AlexNet_topK_30,1,541,NaN,clock,car,NaN,car7-elephant3.png
AlexNet_topK_30,1,542,NaN,oven,car,NaN,car7-keyboard3.png
AlexNet_topK_30,1,543,NaN,knife,car,NaN,car7-oven2.png
AlexNet_topK_30,1,544,NaN,chair,car,NaN,car8-airplane3.png
AlexNet_topK_30,1,545,NaN,chair,car,NaN,car8-bear1.png
AlexNet_topK_30,1,546,NaN,knife,car,NaN,car8-bicycle2.png
AlexNet_topK_30,1,547,NaN,chair,car,NaN,car8-boat3.png
AlexNet_topK_30,1,548,NaN,cat,car,NaN,car8-cat1.png
AlexNet_topK_30,1,549,NaN,oven,car,NaN,car8-chair1.png
AlexNet_topK_30,1,550,NaN,boat,car,NaN,car8-clock2.png
AlexNet_topK_30,1,551,NaN,elephant,car,NaN,car8-dog1.png
AlexNet_topK_30,1,552,NaN,elephant,car,NaN,car8-knife2.png
AlexNet_topK_30,1,553,NaN,cat,car,NaN,car8-truck3.png
AlexNet_topK_30,1,554,NaN,chair,car,NaN,car9-bicycle2.png
AlexNet_topK_30,1,555,NaN,oven,car,NaN,car9-bird1.png
AlexNet_topK_30,1,556,NaN,elephant,car,NaN,car9-cat1.png
AlexNet_topK_30,1,557,NaN,airplane,car,NaN,car9-clock2.png
AlexNet_topK_30,1,558,NaN,truck,car,NaN,car9-keyboard2.png
AlexNet_topK_30,1,559,NaN,chair,car,NaN,car9-knife1.png
AlexNet_topK_30,1,560,NaN,chair,car,NaN,car9-truck3.png
AlexNet_topK_30,1,561,NaN,chair,cat,NaN,cat1-airplane1.png
AlexNet_topK_30,1,562,NaN,elephant,cat,NaN,cat1-bird1.png
AlexNet_topK_30,1,563,NaN,knife,cat,NaN,cat1-boat1.png
AlexNet_topK_30,1,564,NaN,truck,cat,NaN,cat1-car2.png
AlexNet_topK_30,1,565,NaN,elephant,cat,NaN,cat1-cat3.png
AlexNet_topK_30,1,566,NaN,cat,cat,NaN,cat1-chair2.png
AlexNet_topK_30,1,567,NaN,dog,cat,NaN,cat1-dog1.png
AlexNet_topK_30,1,568,NaN,cat,cat,NaN,cat1-keyboard3.png
AlexNet_topK_30,1,569,NaN,chair,cat,NaN,cat1-oven1.png
AlexNet_topK_30,1,570,NaN,chair,cat,NaN,cat10-airplane3.png
AlexNet_topK_30,1,571,NaN,elephant,cat,NaN,cat10-bear1.png
AlexNet_topK_30,1,572,NaN,cat,cat,NaN,cat10-bicycle1.png
AlexNet_topK_30,1,573,NaN,chair,cat,NaN,cat10-bird2.png
AlexNet_topK_30,1,574,NaN,chair,cat,NaN,cat10-bottle1.png
AlexNet_topK_30,1,575,NaN,clock,cat,NaN,cat10-clock1.png
AlexNet_topK_30,1,576,NaN,chair,cat,NaN,cat10-elephant3.png
AlexNet_topK_30,1,577,NaN,bear,cat,NaN,cat10-keyboard1.png
AlexNet_topK_30,1,578,NaN,elephant,cat,NaN,cat10-oven2.png
AlexNet_topK_30,1,579,NaN,bear,cat,NaN,cat2-boat2.png
AlexNet_topK_30,1,580,NaN,bear,cat,NaN,cat2-bottle3.png
AlexNet_topK_30,1,581,NaN,chair,cat,NaN,cat2-car3.png
AlexNet_topK_30,1,582,NaN,knife,cat,NaN,cat2-cat1.png
AlexNet_topK_30,1,583,NaN,clock,cat,NaN,cat2-elephant1.png
AlexNet_topK_30,1,584,NaN,bear,cat,NaN,cat2-knife3.png
AlexNet_topK_30,1,585,NaN,cat,cat,NaN,cat2-truck3.png
AlexNet_topK_30,1,586,NaN,cat,cat,NaN,cat3-bear2.png
AlexNet_topK_30,1,587,NaN,bear,cat,NaN,cat3-bicycle1.png
AlexNet_topK_30,1,588,NaN,oven,cat,NaN,cat3-cat1.png
AlexNet_topK_30,1,589,NaN,chair,cat,NaN,cat3-elephant2.png
AlexNet_topK_30,1,590,NaN,oven,cat,NaN,cat3-oven2.png
AlexNet_topK_30,1,591,NaN,cat,cat,NaN,cat3-truck3.png
AlexNet_topK_30,1,592,NaN,cat,cat,NaN,cat4-airplane1.png
AlexNet_topK_30,1,593,NaN,cat,cat,NaN,cat4-bird2.png
AlexNet_topK_30,1,594,NaN,elephant,cat,NaN,cat4-car2.png
AlexNet_topK_30,1,595,NaN,cat,cat,NaN,cat4-cat3.png
AlexNet_topK_30,1,596,NaN,knife,cat,NaN,cat4-chair2.png
AlexNet_topK_30,1,597,NaN,truck,cat,NaN,cat4-clock2.png
AlexNet_topK_30,1,598,NaN,cat,cat,NaN,cat4-dog3.png
AlexNet_topK_30,1,599,NaN,knife,cat,NaN,cat4-keyboard2.png
AlexNet_topK_30,1,600,NaN,knife,cat,NaN,cat4-knife1.png
AlexNet_topK_30,1,601,NaN,bear,cat,NaN,cat4-oven1.png
AlexNet_topK_30,1,602,NaN,knife,cat,NaN,cat4-truck3.png
AlexNet_topK_30,1,603,NaN,bear,cat,NaN,cat5-airplane2.png
AlexNet_topK_30,1,604,NaN,cat,cat,NaN,cat5-bear2.png
AlexNet_topK_30,1,605,NaN,elephant,cat,NaN,cat5-bicycle3.png
AlexNet_topK_30,1,606,NaN,keyboard,cat,NaN,cat5-boat1.png
AlexNet_topK_30,1,607,NaN,knife,cat,NaN,cat5-bottle1.png
AlexNet_topK_30,1,608,NaN,boat,cat,NaN,cat5-car2.png
AlexNet_topK_30,1,609,NaN,chair,cat,NaN,cat5-chair3.png
AlexNet_topK_30,1,610,NaN,elephant,cat,NaN,cat5-dog3.png
AlexNet_topK_30,1,611,NaN,bear,cat,NaN,cat5-elephant2.png
AlexNet_topK_30,1,612,NaN,elephant,cat,NaN,cat5-keyboard3.png
AlexNet_topK_30,1,613,NaN,knife,cat,NaN,cat5-knife2.png
AlexNet_topK_30,1,614,NaN,elephant,cat,NaN,cat6-bear1.png
AlexNet_topK_30,1,615,NaN,oven,cat,NaN,cat6-chair3.png
AlexNet_topK_30,1,616,NaN,bottle,cat,NaN,cat6-clock3.png
AlexNet_topK_30,1,617,NaN,bear,cat,NaN,cat6-keyboard3.png
AlexNet_topK_30,1,618,NaN,cat,cat,NaN,cat6-oven1.png
AlexNet_topK_30,1,619,NaN,cat,cat,NaN,cat7-airplane2.png
AlexNet_topK_30,1,620,NaN,elephant,cat,NaN,cat7-boat3.png
AlexNet_topK_30,1,621,NaN,chair,cat,NaN,cat7-bottle1.png
AlexNet_topK_30,1,622,NaN,oven,cat,NaN,cat7-clock3.png
AlexNet_topK_30,1,623,NaN,bear,cat,NaN,cat7-dog3.png
AlexNet_topK_30,1,624,NaN,bear,cat,NaN,cat7-elephant1.png
AlexNet_topK_30,1,625,NaN,bottle,cat,NaN,cat7-knife2.png
AlexNet_topK_30,1,626,NaN,truck,cat,NaN,cat7-truck2.png
AlexNet_topK_30,1,627,NaN,truck,cat,NaN,cat8-bear1.png
AlexNet_topK_30,1,628,NaN,chair,cat,NaN,cat8-bicycle3.png
AlexNet_topK_30,1,629,NaN,keyboard,cat,NaN,cat8-bird2.png
AlexNet_topK_30,1,630,NaN,oven,cat,NaN,cat8-car2.png
AlexNet_topK_30,1,631,NaN,bear,cat,NaN,cat9-bicycle1.png
AlexNet_topK_30,1,632,NaN,cat,cat,NaN,cat9-bird3.png
AlexNet_topK_30,1,633,NaN,chair,cat,NaN,cat9-boat2.png
AlexNet_topK_30,1,634,NaN,bear,cat,NaN,cat9-bottle2.png
AlexNet_topK_30,1,635,NaN,bear,cat,NaN,cat9-cat3.png
AlexNet_topK_30,1,636,NaN,chair,cat,NaN,cat9-chair2.png
AlexNet_topK_30,1,637,NaN,elephant,cat,NaN,cat9-clock2.png
AlexNet_topK_30,1,638,NaN,cat,cat,NaN,cat9-dog2.png
AlexNet_topK_30,1,639,NaN,airplane,cat,NaN,cat9-knife2.png
AlexNet_topK_30,1,640,NaN,knife,cat,NaN,cat9-truck1.png
AlexNet_topK_30,1,641,NaN,cat,chair,NaN,chair1-airplane2.png
AlexNet_topK_30,1,642,NaN,cat,chair,NaN,chair1-bear1.png
AlexNet_topK_30,1,643,NaN,knife,chair,NaN,chair1-cat3.png
AlexNet_topK_30,1,644,NaN,bear,chair,NaN,chair1-chair1.png
AlexNet_topK_30,1,645,NaN,knife,chair,NaN,chair1-clock2.png
AlexNet_topK_30,1,646,NaN,bear,chair,NaN,chair1-dog1.png
AlexNet_topK_30,1,647,NaN,chair,chair,NaN,chair1-elephant1.png
AlexNet_topK_30,1,648,NaN,elephant,chair,NaN,chair1-oven3.png
AlexNet_topK_30,1,649,NaN,elephant,chair,NaN,chair1-truck3.png
AlexNet_topK_30,1,650,NaN,bear,chair,NaN,chair10-airplane2.png
AlexNet_topK_30,1,651,NaN,cat,chair,NaN,chair10-bicycle1.png
AlexNet_topK_30,1,652,NaN,chair,chair,NaN,chair10-bird3.png
AlexNet_topK_30,1,653,NaN,chair,chair,NaN,chair10-bottle3.png
AlexNet_topK_30,1,654,NaN,cat,chair,NaN,chair10-car2.png
AlexNet_topK_30,1,655,NaN,oven,chair,NaN,chair10-cat1.png
AlexNet_topK_30,1,656,NaN,clock,chair,NaN,chair10-clock1.png
AlexNet_topK_30,1,657,NaN,elephant,chair,NaN,chair10-dog1.png
AlexNet_topK_30,1,658,NaN,chair,chair,NaN,chair10-oven1.png
AlexNet_topK_30,1,659,NaN,bear,chair,NaN,chair2-bear2.png
AlexNet_topK_30,1,660,NaN,chair,chair,NaN,chair2-boat1.png
AlexNet_topK_30,1,661,NaN,elephant,chair,NaN,chair2-keyboard2.png
AlexNet_topK_30,1,662,NaN,elephant,chair,NaN,chair2-knife1.png
AlexNet_topK_30,1,663,NaN,chair,chair,NaN,chair3-airplane2.png
AlexNet_topK_30,1,664,NaN,cat,chair,NaN,chair3-bicycle3.png
AlexNet_topK_30,1,665,NaN,chair,chair,NaN,chair3-bottle3.png
AlexNet_topK_30,1,666,NaN,knife,chair,NaN,chair3-car3.png
AlexNet_topK_30,1,667,NaN,bear,chair,NaN,chair3-dog2.png
AlexNet_topK_30,1,668,NaN,airplane,chair,NaN,chair3-knife1.png
AlexNet_topK_30,1,669,NaN,airplane,chair,NaN,chair4-bear2.png
AlexNet_topK_30,1,670,NaN,cat,chair,NaN,chair4-cat2.png
AlexNet_topK_30,1,671,NaN,chair,chair,NaN,chair4-chair3.png
AlexNet_topK_30,1,672,NaN,oven,chair,NaN,chair4-keyboard2.png
AlexNet_topK_30,1,673,NaN,cat,chair,NaN,chair4-oven2.png
AlexNet_topK_30,1,674,NaN,elephant,chair,NaN,chair4-truck2.png
AlexNet_topK_30,1,675,NaN,cat,chair,NaN,chair5-bicycle1.png
AlexNet_topK_30,1,676,NaN,boat,chair,NaN,chair5-bird1.png
AlexNet_topK_30,1,677,NaN,chair,chair,NaN,chair5-boat3.png
AlexNet_topK_30,1,678,NaN,bear,chair,NaN,chair5-bottle3.png
AlexNet_topK_30,1,679,NaN,elephant,chair,NaN,chair5-car1.png
AlexNet_topK_30,1,680,NaN,oven,chair,NaN,chair5-cat3.png
AlexNet_topK_30,1,681,NaN,chair,chair,NaN,chair5-clock2.png
AlexNet_topK_30,1,682,NaN,bear,chair,NaN,chair5-keyboard2.png
AlexNet_topK_30,1,683,NaN,cat,chair,NaN,chair5-knife3.png
AlexNet_topK_30,1,684,NaN,cat,chair,NaN,chair5-oven2.png
AlexNet_topK_30,1,685,NaN,elephant,chair,NaN,chair5-truck3.png
AlexNet_topK_30,1,686,NaN,cat,chair,NaN,chair6-bird2.png
AlexNet_topK_30,1,687,NaN,chair,chair,NaN,chair6-dog1.png
AlexNet_topK_30,1,688,NaN,bear,chair,NaN,chair6-elephant2.png
AlexNet_topK_30,1,689,NaN,elephant,chair,NaN,chair6-truck2.png
AlexNet_topK_30,1,690,NaN,knife,chair,NaN,chair7-airplane1.png
AlexNet_topK_30,1,691,NaN,elephant,chair,NaN,chair7-bird1.png
AlexNet_topK_30,1,692,NaN,chair,chair,NaN,chair7-boat3.png
AlexNet_topK_30,1,693,NaN,chair,chair,NaN,chair7-bottle1.png
AlexNet_topK_30,1,694,NaN,chair,chair,NaN,chair7-car2.png
AlexNet_topK_30,1,695,NaN,elephant,chair,NaN,chair7-cat1.png
AlexNet_topK_30,1,696,NaN,oven,chair,NaN,chair7-chair1.png
AlexNet_topK_30,1,697,NaN,airplane,chair,NaN,chair7-clock3.png
AlexNet_topK_30,1,698,NaN,chair,chair,NaN,chair7-elephant1.png
AlexNet_topK_30,1,699,NaN,chair,chair,NaN,chair7-knife2.png
AlexNet_topK_30,1,700,NaN,knife,chair,NaN,chair7-truck3.png
AlexNet_topK_30,1,701,NaN,cat,chair,NaN,chair8-airplane1.png
AlexNet_topK_30,1,702,NaN,bear,chair,NaN,chair8-bear1.png
AlexNet_topK_30,1,703,NaN,chair,chair,NaN,chair8-bicycle3.png
AlexNet_topK_30,1,704,NaN,chair,chair,NaN,chair8-boat1.png
AlexNet_topK_30,1,705,NaN,cat,chair,NaN,chair8-car1.png
AlexNet_topK_30,1,706,NaN,cat,chair,NaN,chair8-chair3.png
AlexNet_topK_30,1,707,NaN,cat,chair,NaN,chair8-clock3.png
AlexNet_topK_30,1,708,NaN,truck,chair,NaN,chair8-elephant1.png
AlexNet_topK_30,1,709,NaN,cat,chair,NaN,chair8-keyboard3.png
AlexNet_topK_30,1,710,NaN,oven,chair,NaN,chair8-knife2.png
AlexNet_topK_30,1,711,NaN,bear,chair,NaN,chair8-oven1.png
AlexNet_topK_30,1,712,NaN,cat,chair,NaN,chair9-bear1.png
AlexNet_topK_30,1,713,NaN,chair,chair,NaN,chair9-bicycle3.png
AlexNet_topK_30,1,714,NaN,elephant,chair,NaN,chair9-bird3.png
AlexNet_topK_30,1,715,NaN,cat,chair,NaN,chair9-boat2.png
AlexNet_topK_30,1,716,NaN,bottle,chair,NaN,chair9-bottle3.png
AlexNet_topK_30,1,717,NaN,chair,chair,NaN,chair9-chair3.png
AlexNet_topK_30,1,718,NaN,bear,chair,NaN,chair9-dog2.png
AlexNet_topK_30,1,719,NaN,chair,chair,NaN,chair9-elephant1.png
AlexNet_topK_30,1,720,NaN,chair,chair,NaN,chair9-keyboard2.png
AlexNet_topK_30,1,721,NaN,chair,clock,NaN,clock1-bear1.png
AlexNet_topK_30,1,722,NaN,chair,clock,NaN,clock1-boat3.png
AlexNet_topK_30,1,723,NaN,cat,clock,NaN,clock1-car1.png
AlexNet_topK_30,1,724,NaN,boat,clock,NaN,clock1-clock2.png
AlexNet_topK_30,1,725,NaN,bear,clock,NaN,clock1-dog2.png
AlexNet_topK_30,1,726,NaN,cat,clock,NaN,clock1-elephant2.png
AlexNet_topK_30,1,727,NaN,chair,clock,NaN,clock1-truck3.png
AlexNet_topK_30,1,728,NaN,cat,clock,NaN,clock10-airplane1.png
AlexNet_topK_30,1,729,NaN,bear,clock,NaN,clock10-bird3.png
AlexNet_topK_30,1,730,NaN,elephant,clock,NaN,clock10-boat2.png
AlexNet_topK_30,1,731,NaN,clock,clock,NaN,clock10-bottle1.png
AlexNet_topK_30,1,732,NaN,bear,clock,NaN,clock10-cat1.png
AlexNet_topK_30,1,733,NaN,chair,clock,NaN,clock10-clock3.png
AlexNet_topK_30,1,734,NaN,chair,clock,NaN,clock10-dog3.png
AlexNet_topK_30,1,735,NaN,elephant,clock,NaN,clock10-knife3.png
AlexNet_topK_30,1,736,NaN,chair,clock,NaN,clock10-oven2.png
AlexNet_topK_30,1,737,NaN,bear,clock,NaN,clock10-truck2.png
AlexNet_topK_30,1,738,NaN,bear,clock,NaN,clock2-bear2.png
AlexNet_topK_30,1,739,NaN,cat,clock,NaN,clock2-bicycle1.png
AlexNet_topK_30,1,740,NaN,dog,clock,NaN,clock2-bottle3.png
AlexNet_topK_30,1,741,NaN,knife,clock,NaN,clock2-clock3.png
AlexNet_topK_30,1,742,NaN,cat,clock,NaN,clock2-dog1.png
AlexNet_topK_30,1,743,NaN,chair,clock,NaN,clock2-elephant2.png
AlexNet_topK_30,1,744,NaN,cat,clock,NaN,clock2-knife1.png
AlexNet_topK_30,1,745,NaN,oven,clock,NaN,clock3-bear3.png
AlexNet_topK_30,1,746,NaN,cat,clock,NaN,clock3-bicycle2.png
AlexNet_topK_30,1,747,NaN,oven,clock,NaN,clock3-bird1.png
AlexNet_topK_30,1,748,NaN,chair,clock,NaN,clock3-car2.png
AlexNet_topK_30,1,749,NaN,chair,clock,NaN,clock3-cat1.png
AlexNet_topK_30,1,750,NaN,bear,clock,NaN,clock3-dog2.png
AlexNet_topK_30,1,751,NaN,elephant,clock,NaN,clock3-elephant3.png
AlexNet_topK_30,1,752,NaN,oven,clock,NaN,clock3-keyboard3.png
AlexNet_topK_30,1,753,NaN,clock,clock,NaN,clock4-airplane1.png
AlexNet_topK_30,1,754,NaN,chair,clock,NaN,clock4-bird3.png
AlexNet_topK_30,1,755,NaN,cat,clock,NaN,clock4-boat3.png
AlexNet_topK_30,1,756,NaN,cat,clock,NaN,clock4-bottle3.png
AlexNet_topK_30,1,757,NaN,cat,clock,NaN,clock4-car2.png
AlexNet_topK_30,1,758,NaN,chair,clock,NaN,clock4-chair1.png
AlexNet_topK_30,1,759,NaN,elephant,clock,NaN,clock4-elephant2.png
AlexNet_topK_30,1,760,NaN,chair,clock,NaN,clock4-knife1.png
AlexNet_topK_30,1,761,NaN,elephant,clock,NaN,clock4-oven1.png
AlexNet_topK_30,1,762,NaN,bear,clock,NaN,clock5-airplane1.png
AlexNet_topK_30,1,763,NaN,knife,clock,NaN,clock5-bicycle1.png
AlexNet_topK_30,1,764,NaN,bear,clock,NaN,clock5-chair3.png
AlexNet_topK_30,1,765,NaN,chair,clock,NaN,clock5-clock2.png
AlexNet_topK_30,1,766,NaN,bicycle,clock,NaN,clock5-elephant2.png
AlexNet_topK_30,1,767,NaN,knife,clock,NaN,clock5-keyboard1.png
AlexNet_topK_30,1,768,NaN,bear,clock,NaN,clock5-oven1.png
AlexNet_topK_30,1,769,NaN,cat,clock,NaN,clock6-bicycle1.png
AlexNet_topK_30,1,770,NaN,chair,clock,NaN,clock6-bird3.png
AlexNet_topK_30,1,771,NaN,chair,clock,NaN,clock6-bottle1.png
AlexNet_topK_30,1,772,NaN,chair,clock,NaN,clock6-car2.png
AlexNet_topK_30,1,773,NaN,cat,clock,NaN,clock6-chair3.png
AlexNet_topK_30,1,774,NaN,chair,clock,NaN,clock6-clock2.png
AlexNet_topK_30,1,775,NaN,cat,clock,NaN,clock6-knife2.png
AlexNet_topK_30,1,776,NaN,chair,clock,NaN,clock6-oven1.png
AlexNet_topK_30,1,777,NaN,chair,clock,NaN,clock6-truck3.png
AlexNet_topK_30,1,778,NaN,bear,clock,NaN,clock7-bear2.png
AlexNet_topK_30,1,779,NaN,chair,clock,NaN,clock7-bicycle1.png
AlexNet_topK_30,1,780,NaN,truck,clock,NaN,clock7-boat3.png
AlexNet_topK_30,1,781,NaN,knife,clock,NaN,clock7-bottle2.png
AlexNet_topK_30,1,782,NaN,cat,clock,NaN,clock7-car1.png
AlexNet_topK_30,1,783,NaN,cat,clock,NaN,clock7-cat2.png
AlexNet_topK_30,1,784,NaN,elephant,clock,NaN,clock7-dog2.png
AlexNet_topK_30,1,785,NaN,oven,clock,NaN,clock7-keyboard2.png
AlexNet_topK_30,1,786,NaN,knife,clock,NaN,clock7-truck3.png
AlexNet_topK_30,1,787,NaN,cat,clock,NaN,clock8-airplane2.png
AlexNet_topK_30,1,788,NaN,bear,clock,NaN,clock8-bear2.png
AlexNet_topK_30,1,789,NaN,knife,clock,NaN,clock8-boat1.png
AlexNet_topK_30,1,790,NaN,chair,clock,NaN,clock8-cat1.png
AlexNet_topK_30,1,791,NaN,chair,clock,NaN,clock8-chair2.png
AlexNet_topK_30,1,792,NaN,chair,clock,NaN,clock8-keyboard1.png
AlexNet_topK_30,1,793,NaN,cat,clock,NaN,clock8-knife1.png
AlexNet_topK_30,1,794,NaN,chair,clock,NaN,clock8-oven3.png
AlexNet_topK_30,1,795,NaN,cat,clock,NaN,clock8-truck2.png
AlexNet_topK_30,1,796,NaN,knife,clock,NaN,clock9-airplane1.png
AlexNet_topK_30,1,797,NaN,oven,clock,NaN,clock9-bird2.png
AlexNet_topK_30,1,798,NaN,elephant,clock,NaN,clock9-cat1.png
AlexNet_topK_30,1,799,NaN,chair,clock,NaN,clock9-chair3.png
AlexNet_topK_30,1,800,NaN,cat,clock,NaN,clock9-keyboard2.png
AlexNet_topK_30,1,801,NaN,elephant,dog,NaN,dog1-airplane3.png
AlexNet_topK_30,1,802,NaN,elephant,dog,NaN,dog1-bear1.png
AlexNet_topK_30,1,803,NaN,knife,dog,NaN,dog1-bird1.png
AlexNet_topK_30,1,804,NaN,clock,dog,NaN,dog1-boat3.png
AlexNet_topK_30,1,805,NaN,knife,dog,NaN,dog1-car2.png
AlexNet_topK_30,1,806,NaN,knife,dog,NaN,dog1-cat3.png
AlexNet_topK_30,1,807,NaN,cat,dog,NaN,dog1-chair1.png
AlexNet_topK_30,1,808,NaN,cat,dog,NaN,dog1-dog2.png
AlexNet_topK_30,1,809,NaN,chair,dog,NaN,dog1-knife3.png
AlexNet_topK_30,1,810,NaN,airplane,dog,NaN,dog10-airplane1.png
AlexNet_topK_30,1,811,NaN,chair,dog,NaN,dog10-bicycle1.png
AlexNet_topK_30,1,812,NaN,elephant,dog,NaN,dog10-bottle1.png
AlexNet_topK_30,1,813,NaN,cat,dog,NaN,dog10-car3.png
AlexNet_topK_30,1,814,NaN,chair,dog,NaN,dog10-clock1.png
AlexNet_topK_30,1,815,NaN,cat,dog,NaN,dog10-dog1.png
AlexNet_topK_30,1,816,NaN,chair,dog,NaN,dog10-elephant1.png
AlexNet_topK_30,1,817,NaN,bear,dog,NaN,dog10-keyboard2.png
AlexNet_topK_30,1,818,NaN,chair,dog,NaN,dog10-oven2.png
AlexNet_topK_30,1,819,NaN,cat,dog,NaN,dog10-truck2.png
AlexNet_topK_30,1,820,NaN,knife,dog,NaN,dog2-airplane2.png
AlexNet_topK_30,1,821,NaN,dog,dog,NaN,dog2-bicycle2.png
AlexNet_topK_30,1,822,NaN,cat,dog,NaN,dog2-bottle2.png
AlexNet_topK_30,1,823,NaN,chair,dog,NaN,dog2-cat1.png
AlexNet_topK_30,1,824,NaN,chair,dog,NaN,dog2-dog3.png
AlexNet_topK_30,1,825,NaN,elephant,dog,NaN,dog2-knife3.png
AlexNet_topK_30,1,826,NaN,oven,dog,NaN,dog3-bear3.png
AlexNet_topK_30,1,827,NaN,chair,dog,NaN,dog3-bird2.png
AlexNet_topK_30,1,828,NaN,airplane,dog,NaN,dog3-boat1.png
AlexNet_topK_30,1,829,NaN,chair,dog,NaN,dog3-clock1.png
AlexNet_topK_30,1,830,NaN,knife,dog,NaN,dog3-dog1.png
AlexNet_topK_30,1,831,NaN,boat,dog,NaN,dog3-elephant2.png
AlexNet_topK_30,1,832,NaN,oven,dog,NaN,dog3-keyboard1.png
AlexNet_topK_30,1,833,NaN,elephant,dog,NaN,dog3-knife3.png
AlexNet_topK_30,1,834,NaN,cat,dog,NaN,dog3-truck2.png
AlexNet_topK_30,1,835,NaN,chair,dog,NaN,dog4-airplane3.png
AlexNet_topK_30,1,836,NaN,chair,dog,NaN,dog4-bicycle1.png
AlexNet_topK_30,1,837,NaN,knife,dog,NaN,dog4-bird1.png
AlexNet_topK_30,1,838,NaN,cat,dog,NaN,dog4-bottle2.png
AlexNet_topK_30,1,839,NaN,chair,dog,NaN,dog4-cat3.png
AlexNet_topK_30,1,840,NaN,oven,dog,NaN,dog4-chair1.png
AlexNet_topK_30,1,841,NaN,elephant,dog,NaN,dog4-clock1.png
AlexNet_topK_30,1,842,NaN,knife,dog,NaN,dog4-elephant2.png
AlexNet_topK_30,1,843,NaN,truck,dog,NaN,dog4-keyboard2.png
AlexNet_topK_30,1,844,NaN,cat,dog,NaN,dog4-oven1.png
AlexNet_topK_30,1,845,NaN,bear,dog,NaN,dog4-truck2.png
AlexNet_topK_30,1,846,NaN,oven,dog,NaN,dog5-bear3.png
AlexNet_topK_30,1,847,NaN,chair,dog,NaN,dog5-boat3.png
AlexNet_topK_30,1,848,NaN,knife,dog,NaN,dog5-car3.png
AlexNet_topK_30,1,849,NaN,chair,dog,NaN,dog5-elephant1.png
AlexNet_topK_30,1,850,NaN,truck,dog,NaN,dog5-knife2.png
AlexNet_topK_30,1,851,NaN,elephant,dog,NaN,dog5-oven1.png
AlexNet_topK_30,1,852,NaN,cat,dog,NaN,dog5-truck2.png
AlexNet_topK_30,1,853,NaN,bottle,dog,NaN,dog6-bicycle1.png
AlexNet_topK_30,1,854,NaN,elephant,dog,NaN,dog6-bird1.png
AlexNet_topK_30,1,855,NaN,chair,dog,NaN,dog6-cat1.png
AlexNet_topK_30,1,856,NaN,keyboard,dog,NaN,dog6-clock1.png
AlexNet_topK_30,1,857,NaN,airplane,dog,NaN,dog6-elephant2.png
AlexNet_topK_30,1,858,NaN,bear,dog,NaN,dog6-truck2.png
AlexNet_topK_30,1,859,NaN,bear,dog,NaN,dog7-bird3.png
AlexNet_topK_30,1,860,NaN,bear,dog,NaN,dog7-car2.png
AlexNet_topK_30,1,861,NaN,elephant,dog,NaN,dog7-chair2.png
AlexNet_topK_30,1,862,NaN,elephant,dog,NaN,dog7-keyboard3.png
AlexNet_topK_30,1,863,NaN,oven,dog,NaN,dog7-knife3.png
AlexNet_topK_30,1,864,NaN,knife,dog,NaN,dog7-oven2.png
AlexNet_topK_30,1,865,NaN,elephant,dog,NaN,dog8-bear3.png
AlexNet_topK_30,1,866,NaN,chair,dog,NaN,dog8-boat3.png
AlexNet_topK_30,1,867,NaN,chair,dog,NaN,dog8-bottle2.png
AlexNet_topK_30,1,868,NaN,clock,dog,NaN,dog8-chair3.png
AlexNet_topK_30,1,869,NaN,cat,dog,NaN,dog8-clock2.png
AlexNet_topK_30,1,870,NaN,chair,dog,NaN,dog8-dog3.png
AlexNet_topK_30,1,871,NaN,bear,dog,NaN,dog8-keyboard3.png
AlexNet_topK_30,1,872,NaN,cat,dog,NaN,dog8-oven3.png
AlexNet_topK_30,1,873,NaN,oven,dog,NaN,dog9-airplane3.png
AlexNet_topK_30,1,874,NaN,oven,dog,NaN,dog9-bear3.png
AlexNet_topK_30,1,875,NaN,clock,dog,NaN,dog9-bicycle3.png
AlexNet_topK_30,1,876,NaN,elephant,dog,NaN,dog9-boat1.png
AlexNet_topK_30,1,877,NaN,boat,dog,NaN,dog9-bottle1.png
AlexNet_topK_30,1,878,NaN,chair,dog,NaN,dog9-car1.png
AlexNet_topK_30,1,879,NaN,cat,dog,NaN,dog9-cat1.png
AlexNet_topK_30,1,880,NaN,chair,dog,NaN,dog9-chair2.png
AlexNet_topK_30,1,881,NaN,elephant,elephant,NaN,elephant1-airplane2.png
AlexNet_topK_30,1,882,NaN,knife,elephant,NaN,elephant1-bear2.png
AlexNet_topK_30,1,883,NaN,cat,elephant,NaN,elephant1-boat2.png
AlexNet_topK_30,1,884,NaN,bottle,elephant,NaN,elephant1-bottle1.png
AlexNet_topK_30,1,885,NaN,knife,elephant,NaN,elephant1-car3.png
AlexNet_topK_30,1,886,NaN,chair,elephant,NaN,elephant1-chair1.png
AlexNet_topK_30,1,887,NaN,bear,elephant,NaN,elephant1-dog2.png
AlexNet_topK_30,1,888,NaN,chair,elephant,NaN,elephant1-keyboard3.png
AlexNet_topK_30,1,889,NaN,chair,elephant,NaN,elephant1-oven2.png
AlexNet_topK_30,1,890,NaN,chair,elephant,NaN,elephant10-bear1.png
AlexNet_topK_30,1,891,NaN,truck,elephant,NaN,elephant10-elephant1.png
AlexNet_topK_30,1,892,NaN,knife,elephant,NaN,elephant10-keyboard1.png
AlexNet_topK_30,1,893,NaN,elephant,elephant,NaN,elephant10-knife3.png
AlexNet_topK_30,1,894,NaN,knife,elephant,NaN,elephant2-airplane3.png
AlexNet_topK_30,1,895,NaN,bear,elephant,NaN,elephant2-bear3.png
AlexNet_topK_30,1,896,NaN,knife,elephant,NaN,elephant2-bird1.png
AlexNet_topK_30,1,897,NaN,airplane,elephant,NaN,elephant2-boat1.png
AlexNet_topK_30,1,898,NaN,chair,elephant,NaN,elephant2-bottle3.png
AlexNet_topK_30,1,899,NaN,oven,elephant,NaN,elephant2-cat1.png
AlexNet_topK_30,1,900,NaN,chair,elephant,NaN,elephant2-clock1.png
AlexNet_topK_30,1,901,NaN,elephant,elephant,NaN,elephant2-elephant3.png
AlexNet_topK_30,1,902,NaN,bear,elephant,NaN,elephant2-keyboard3.png
AlexNet_topK_30,1,903,NaN,airplane,elephant,NaN,elephant2-truck2.png
AlexNet_topK_30,1,904,NaN,bear,elephant,NaN,elephant3-cat2.png
AlexNet_topK_30,1,905,NaN,knife,elephant,NaN,elephant3-chair1.png
AlexNet_topK_30,1,906,NaN,bear,elephant,NaN,elephant3-keyboard2.png
AlexNet_topK_30,1,907,NaN,elephant,elephant,NaN,elephant3-knife1.png
AlexNet_topK_30,1,908,NaN,cat,elephant,NaN,elephant3-oven1.png
AlexNet_topK_30,1,909,NaN,cat,elephant,NaN,elephant3-truck1.png
AlexNet_topK_30,1,910,NaN,cat,elephant,NaN,elephant4-bicycle2.png
AlexNet_topK_30,1,911,NaN,cat,elephant,NaN,elephant4-bird1.png
AlexNet_topK_30,1,912,NaN,cat,elephant,NaN,elephant4-boat3.png
AlexNet_topK_30,1,913,NaN,elephant,elephant,NaN,elephant4-car3.png
AlexNet_topK_30,1,914,NaN,cat,elephant,NaN,elephant4-chair3.png
AlexNet_topK_30,1,915,NaN,bear,elephant,NaN,elephant4-clock3.png
AlexNet_topK_30,1,916,NaN,chair,elephant,NaN,elephant4-oven1.png
AlexNet_topK_30,1,917,NaN,bear,elephant,NaN,elephant5-bear2.png
AlexNet_topK_30,1,918,NaN,knife,elephant,NaN,elephant5-bicycle3.png
AlexNet_topK_30,1,919,NaN,cat,elephant,NaN,elephant5-bottle2.png
AlexNet_topK_30,1,920,NaN,chair,elephant,NaN,elephant5-car1.png
AlexNet_topK_30,1,921,NaN,cat,elephant,NaN,elephant5-chair3.png
AlexNet_topK_30,1,922,NaN,cat,elephant,NaN,elephant5-elephant1.png
AlexNet_topK_30,1,923,NaN,chair,elephant,NaN,elephant5-truck1.png
AlexNet_topK_30,1,924,NaN,clock,elephant,NaN,elephant6-bicycle1.png
AlexNet_topK_30,1,925,NaN,elephant,elephant,NaN,elephant6-bird1.png
AlexNet_topK_30,1,926,NaN,chair,elephant,NaN,elephant6-bottle2.png
AlexNet_topK_30,1,927,NaN,dog,elephant,NaN,elephant6-car3.png
AlexNet_topK_30,1,928,NaN,chair,elephant,NaN,elephant6-cat2.png
AlexNet_topK_30,1,929,NaN,chair,elephant,NaN,elephant6-dog2.png
AlexNet_topK_30,1,930,NaN,cat,elephant,NaN,elephant6-knife2.png
AlexNet_topK_30,1,931,NaN,chair,elephant,NaN,elephant6-oven1.png
AlexNet_topK_30,1,932,NaN,oven,elephant,NaN,elephant6-truck3.png
AlexNet_topK_30,1,933,NaN,chair,elephant,NaN,elephant7-airplane3.png
AlexNet_topK_30,1,934,NaN,cat,elephant,NaN,elephant7-bear3.png
AlexNet_topK_30,1,935,NaN,chair,elephant,NaN,elephant7-bird1.png
AlexNet_topK_30,1,936,NaN,bicycle,elephant,NaN,elephant7-bottle3.png
AlexNet_topK_30,1,937,NaN,elephant,elephant,NaN,elephant7-car3.png
AlexNet_topK_30,1,938,NaN,chair,elephant,NaN,elephant7-cat1.png
AlexNet_topK_30,1,939,NaN,cat,elephant,NaN,elephant7-clock2.png
AlexNet_topK_30,1,940,NaN,chair,elephant,NaN,elephant7-dog1.png
AlexNet_topK_30,1,941,NaN,chair,elephant,NaN,elephant7-keyboard3.png
AlexNet_topK_30,1,942,NaN,oven,elephant,NaN,elephant7-knife2.png
AlexNet_topK_30,1,943,NaN,elephant,elephant,NaN,elephant8-airplane3.png
AlexNet_topK_30,1,944,NaN,bear,elephant,NaN,elephant8-bicycle3.png
AlexNet_topK_30,1,945,NaN,cat,elephant,NaN,elephant8-bird2.png
AlexNet_topK_30,1,946,NaN,knife,elephant,NaN,elephant8-boat2.png
AlexNet_topK_30,1,947,NaN,chair,elephant,NaN,elephant8-cat1.png
AlexNet_topK_30,1,948,NaN,cat,elephant,NaN,elephant8-clock2.png
AlexNet_topK_30,1,949,NaN,bear,elephant,NaN,elephant8-dog1.png
AlexNet_topK_30,1,950,NaN,cat,elephant,NaN,elephant8-elephant1.png
AlexNet_topK_30,1,951,NaN,bear,elephant,NaN,elephant8-knife2.png
AlexNet_topK_30,1,952,NaN,chair,elephant,NaN,elephant8-oven3.png
AlexNet_topK_30,1,953,NaN,oven,elephant,NaN,elephant8-truck3.png
AlexNet_topK_30,1,954,NaN,oven,elephant,NaN,elephant9-airplane2.png
AlexNet_topK_30,1,955,NaN,elephant,elephant,NaN,elephant9-bicycle2.png
AlexNet_topK_30,1,956,NaN,bottle,elephant,NaN,elephant9-boat3.png
AlexNet_topK_30,1,957,NaN,cat,elephant,NaN,elephant9-chair2.png
AlexNet_topK_30,1,958,NaN,knife,elephant,NaN,elephant9-clock3.png
AlexNet_topK_30,1,959,NaN,cat,elephant,NaN,elephant9-dog3.png
AlexNet_topK_30,1,960,NaN,knife,elephant,NaN,elephant9-elephant3.png
AlexNet_topK_30,1,961,NaN,elephant,keyboard,NaN,keyboard1-airplane2.png
AlexNet_topK_30,1,962,NaN,cat,keyboard,NaN,keyboard1-bear2.png
AlexNet_topK_30,1,963,NaN,chair,keyboard,NaN,keyboard1-bird2.png
AlexNet_topK_30,1,964,NaN,bear,keyboard,NaN,keyboard1-car3.png
AlexNet_topK_30,1,965,NaN,oven,keyboard,NaN,keyboard1-chair2.png
AlexNet_topK_30,1,966,NaN,cat,keyboard,NaN,keyboard1-clock1.png
AlexNet_topK_30,1,967,NaN,elephant,keyboard,NaN,keyboard1-dog3.png
AlexNet_topK_30,1,968,NaN,airplane,keyboard,NaN,keyboard1-elephant3.png
AlexNet_topK_30,1,969,NaN,oven,keyboard,NaN,keyboard10-airplane3.png
AlexNet_topK_30,1,970,NaN,clock,keyboard,NaN,keyboard10-boat2.png
AlexNet_topK_30,1,971,NaN,chair,keyboard,NaN,keyboard10-car1.png
AlexNet_topK_30,1,972,NaN,oven,keyboard,NaN,keyboard10-keyboard1.png
AlexNet_topK_30,1,973,NaN,knife,keyboard,NaN,keyboard10-oven3.png
AlexNet_topK_30,1,974,NaN,chair,keyboard,NaN,keyboard10-truck1.png
AlexNet_topK_30,1,975,NaN,elephant,keyboard,NaN,keyboard2-bicycle3.png
AlexNet_topK_30,1,976,NaN,bear,keyboard,NaN,keyboard2-bottle1.png
AlexNet_topK_30,1,977,NaN,cat,keyboard,NaN,keyboard2-clock1.png
AlexNet_topK_30,1,978,NaN,airplane,keyboard,NaN,keyboard2-elephant1.png
AlexNet_topK_30,1,979,NaN,clock,keyboard,NaN,keyboard2-knife1.png
AlexNet_topK_30,1,980,NaN,chair,keyboard,NaN,keyboard3-bicycle2.png
AlexNet_topK_30,1,981,NaN,oven,keyboard,NaN,keyboard3-bird3.png
AlexNet_topK_30,1,982,NaN,bear,keyboard,NaN,keyboard3-boat1.png
AlexNet_topK_30,1,983,NaN,oven,keyboard,NaN,keyboard3-car2.png
AlexNet_topK_30,1,984,NaN,oven,keyboard,NaN,keyboard3-cat1.png
AlexNet_topK_30,1,985,NaN,elephant,keyboard,NaN,keyboard3-clock3.png
AlexNet_topK_30,1,986,NaN,cat,keyboard,NaN,keyboard3-elephant2.png
AlexNet_topK_30,1,987,NaN,chair,keyboard,NaN,keyboard4-bird1.png
AlexNet_topK_30,1,988,NaN,elephant,keyboard,NaN,keyboard4-bottle2.png
AlexNet_topK_30,1,989,NaN,bear,keyboard,NaN,keyboard4-cat2.png
AlexNet_topK_30,1,990,NaN,boat,keyboard,NaN,keyboard4-clock2.png
AlexNet_topK_30,1,991,NaN,knife,keyboard,NaN,keyboard4-keyboard2.png
AlexNet_topK_30,1,992,NaN,bear,keyboard,NaN,keyboard4-knife2.png
AlexNet_topK_30,1,993,NaN,elephant,keyboard,NaN,keyboard4-oven2.png
AlexNet_topK_30,1,994,NaN,elephant,keyboard,NaN,keyboard4-truck3.png
AlexNet_topK_30,1,995,NaN,oven,keyboard,NaN,keyboard5-airplane3.png
AlexNet_topK_30,1,996,NaN,knife,keyboard,NaN,keyboard5-bear3.png
AlexNet_topK_30,1,997,NaN,cat,keyboard,NaN,keyboard5-bicycle1.png
AlexNet_topK_30,1,998,NaN,bear,keyboard,NaN,keyboard5-bird3.png
AlexNet_topK_30,1,999,NaN,chair,keyboard,NaN,keyboard5-bottle1.png
AlexNet_topK_30,1,1000,NaN,chair,keyboard,NaN,keyboard5-cat1.png
AlexNet_topK_30,1,1001,NaN,elephant,keyboard,NaN,keyboard5-dog3.png
AlexNet_topK_30,1,1002,NaN,clock,keyboard,NaN,keyboard5-keyboard1.png
AlexNet_topK_30,1,1003,NaN,knife,keyboard,NaN,keyboard5-knife2.png
AlexNet_topK_30,1,1004,NaN,knife,keyboard,NaN,keyboard5-oven2.png
AlexNet_topK_30,1,1005,NaN,cat,keyboard,NaN,keyboard6-bear2.png
AlexNet_topK_30,1,1006,NaN,bear,keyboard,NaN,keyboard6-bicycle1.png
AlexNet_topK_30,1,1007,NaN,chair,keyboard,NaN,keyboard6-boat2.png
AlexNet_topK_30,1,1008,NaN,bird,keyboard,NaN,keyboard6-bottle2.png
AlexNet_topK_30,1,1009,NaN,chair,keyboard,NaN,keyboard6-car2.png
AlexNet_topK_30,1,1010,NaN,knife,keyboard,NaN,keyboard6-chair1.png
AlexNet_topK_30,1,1011,NaN,cat,keyboard,NaN,keyboard6-dog2.png
AlexNet_topK_30,1,1012,NaN,knife,keyboard,NaN,keyboard6-elephant1.png
AlexNet_topK_30,1,1013,NaN,knife,keyboard,NaN,keyboard6-knife2.png
AlexNet_topK_30,1,1014,NaN,elephant,keyboard,NaN,keyboard7-bear2.png
AlexNet_topK_30,1,1015,NaN,knife,keyboard,NaN,keyboard7-boat2.png
AlexNet_topK_30,1,1016,NaN,cat,keyboard,NaN,keyboard7-bottle1.png
AlexNet_topK_30,1,1017,NaN,chair,keyboard,NaN,keyboard7-car3.png
AlexNet_topK_30,1,1018,NaN,cat,keyboard,NaN,keyboard7-chair3.png
AlexNet_topK_30,1,1019,NaN,elephant,keyboard,NaN,keyboard7-clock3.png
AlexNet_topK_30,1,1020,NaN,oven,keyboard,NaN,keyboard7-dog1.png
AlexNet_topK_30,1,1021,NaN,oven,keyboard,NaN,keyboard7-knife1.png
AlexNet_topK_30,1,1022,NaN,bear,keyboard,NaN,keyboard7-oven2.png
AlexNet_topK_30,1,1023,NaN,chair,keyboard,NaN,keyboard7-truck2.png
AlexNet_topK_30,1,1024,NaN,chair,keyboard,NaN,keyboard8-airplane2.png
AlexNet_topK_30,1,1025,NaN,bear,keyboard,NaN,keyboard8-cat3.png
AlexNet_topK_30,1,1026,NaN,bear,keyboard,NaN,keyboard8-chair2.png
AlexNet_topK_30,1,1027,NaN,cat,keyboard,NaN,keyboard8-dog3.png
AlexNet_topK_30,1,1028,NaN,bear,keyboard,NaN,keyboard8-keyboard2.png
AlexNet_topK_30,1,1029,NaN,chair,keyboard,NaN,keyboard8-oven1.png
AlexNet_topK_30,1,1030,NaN,oven,keyboard,NaN,keyboard8-truck3.png
AlexNet_topK_30,1,1031,NaN,bicycle,keyboard,NaN,keyboard9-airplane3.png
AlexNet_topK_30,1,1032,NaN,oven,keyboard,NaN,keyboard9-bear2.png
AlexNet_topK_30,1,1033,NaN,chair,keyboard,NaN,keyboard9-bicycle2.png
AlexNet_topK_30,1,1034,NaN,knife,keyboard,NaN,keyboard9-bird1.png
AlexNet_topK_30,1,1035,NaN,chair,keyboard,NaN,keyboard9-boat2.png
AlexNet_topK_30,1,1036,NaN,knife,keyboard,NaN,keyboard9-cat1.png
AlexNet_topK_30,1,1037,NaN,cat,keyboard,NaN,keyboard9-chair2.png
AlexNet_topK_30,1,1038,NaN,chair,keyboard,NaN,keyboard9-elephant2.png
AlexNet_topK_30,1,1039,NaN,elephant,keyboard,NaN,keyboard9-keyboard2.png
AlexNet_topK_30,1,1040,NaN,elephant,keyboard,NaN,keyboard9-truck3.png
AlexNet_topK_30,1,1041,NaN,bear,knife,NaN,knife1-airplane1.png
AlexNet_topK_30,1,1042,NaN,chair,knife,NaN,knife1-bird2.png
AlexNet_topK_30,1,1043,NaN,elephant,knife,NaN,knife1-car3.png
AlexNet_topK_30,1,1044,NaN,bear,knife,NaN,knife1-chair1.png
AlexNet_topK_30,1,1045,NaN,knife,knife,NaN,knife1-clock2.png
AlexNet_topK_30,1,1046,NaN,bear,knife,NaN,knife1-dog1.png
AlexNet_topK_30,1,1047,NaN,cat,knife,NaN,knife1-elephant1.png
AlexNet_topK_30,1,1048,NaN,chair,knife,NaN,knife1-keyboard3.png
AlexNet_topK_30,1,1049,NaN,cat,knife,NaN,knife1-oven1.png
AlexNet_topK_30,1,1050,NaN,oven,knife,NaN,knife1-truck2.png
AlexNet_topK_30,1,1051,NaN,elephant,knife,NaN,knife10-bear3.png
AlexNet_topK_30,1,1052,NaN,chair,knife,NaN,knife10-chair1.png
AlexNet_topK_30,1,1053,NaN,cat,knife,NaN,knife10-dog1.png
AlexNet_topK_30,1,1054,NaN,clock,knife,NaN,knife10-elephant3.png
AlexNet_topK_30,1,1055,NaN,bear,knife,NaN,knife10-keyboard3.png
AlexNet_topK_30,1,1056,NaN,bird,knife,NaN,knife10-knife1.png
AlexNet_topK_30,1,1057,NaN,chair,knife,NaN,knife10-oven3.png
AlexNet_topK_30,1,1058,NaN,chair,knife,NaN,knife2-bear2.png
AlexNet_topK_30,1,1059,NaN,chair,knife,NaN,knife2-bicycle3.png
AlexNet_topK_30,1,1060,NaN,airplane,knife,NaN,knife2-bird1.png
AlexNet_topK_30,1,1061,NaN,oven,knife,NaN,knife2-bottle2.png
AlexNet_topK_30,1,1062,NaN,chair,knife,NaN,knife2-car3.png
AlexNet_topK_30,1,1063,NaN,elephant,knife,NaN,knife2-cat3.png
AlexNet_topK_30,1,1064,NaN,knife,knife,NaN,knife2-dog1.png
AlexNet_topK_30,1,1065,NaN,cat,knife,NaN,knife2-elephant2.png
AlexNet_topK_30,1,1066,NaN,airplane,knife,NaN,knife2-truck2.png
AlexNet_topK_30,1,1067,NaN,airplane,knife,NaN,knife3-bear2.png
AlexNet_topK_30,1,1068,NaN,chair,knife,NaN,knife3-cat1.png
AlexNet_topK_30,1,1069,NaN,oven,knife,NaN,knife3-clock2.png
AlexNet_topK_30,1,1070,NaN,elephant,knife,NaN,knife3-keyboard3.png
AlexNet_topK_30,1,1071,NaN,bear,knife,NaN,knife3-knife1.png
AlexNet_topK_30,1,1072,NaN,cat,knife,NaN,knife4-airplane3.png
AlexNet_topK_30,1,1073,NaN,elephant,knife,NaN,knife4-bear1.png
AlexNet_topK_30,1,1074,NaN,cat,knife,NaN,knife4-boat1.png
AlexNet_topK_30,1,1075,NaN,cat,knife,NaN,knife4-car2.png
AlexNet_topK_30,1,1076,NaN,oven,knife,NaN,knife4-cat2.png
AlexNet_topK_30,1,1077,NaN,chair,knife,NaN,knife4-clock3.png
AlexNet_topK_30,1,1078,NaN,chair,knife,NaN,knife4-keyboard1.png
AlexNet_topK_30,1,1079,NaN,knife,knife,NaN,knife4-knife2.png
AlexNet_topK_30,1,1080,NaN,cat,knife,NaN,knife4-oven2.png
AlexNet_topK_30,1,1081,NaN,chair,knife,NaN,knife5-bicycle2.png
AlexNet_topK_30,1,1082,NaN,chair,knife,NaN,knife5-cat2.png
AlexNet_topK_30,1,1083,NaN,chair,knife,NaN,knife5-clock1.png
AlexNet_topK_30,1,1084,NaN,knife,knife,NaN,knife5-dog1.png
AlexNet_topK_30,1,1085,NaN,oven,knife,NaN,knife5-keyboard3.png
AlexNet_topK_30,1,1086,NaN,chair,knife,NaN,knife5-knife3.png
AlexNet_topK_30,1,1087,NaN,elephant,knife,NaN,knife5-oven2.png
AlexNet_topK_30,1,1088,NaN,cat,knife,NaN,knife5-truck3.png
AlexNet_topK_30,1,1089,NaN,boat,knife,NaN,knife6-airplane1.png
AlexNet_topK_30,1,1090,NaN,cat,knife,NaN,knife6-bicycle1.png
AlexNet_topK_30,1,1091,NaN,elephant,knife,NaN,knife6-bird1.png
AlexNet_topK_30,1,1092,NaN,bear,knife,NaN,knife6-boat3.png
AlexNet_topK_30,1,1093,NaN,boat,knife,NaN,knife6-bottle3.png
AlexNet_topK_30,1,1094,NaN,oven,knife,NaN,knife6-chair3.png
AlexNet_topK_30,1,1095,NaN,cat,knife,NaN,knife6-clock2.png
AlexNet_topK_30,1,1096,NaN,chair,knife,NaN,knife6-dog2.png
AlexNet_topK_30,1,1097,NaN,elephant,knife,NaN,knife6-knife1.png
AlexNet_topK_30,1,1098,NaN,elephant,knife,NaN,knife6-oven3.png
AlexNet_topK_30,1,1099,NaN,chair,knife,NaN,knife6-truck1.png
AlexNet_topK_30,1,1100,NaN,knife,knife,NaN,knife7-airplane3.png
AlexNet_topK_30,1,1101,NaN,truck,knife,NaN,knife7-bird3.png
AlexNet_topK_30,1,1102,NaN,chair,knife,NaN,knife7-boat3.png
AlexNet_topK_30,1,1103,NaN,bear,knife,NaN,knife7-bottle3.png
AlexNet_topK_30,1,1104,NaN,cat,knife,NaN,knife7-car2.png
AlexNet_topK_30,1,1105,NaN,elephant,knife,NaN,knife7-chair2.png
AlexNet_topK_30,1,1106,NaN,chair,knife,NaN,knife7-elephant2.png
AlexNet_topK_30,1,1107,NaN,bicycle,knife,NaN,knife8-bicycle1.png
AlexNet_topK_30,1,1108,NaN,chair,knife,NaN,knife8-boat1.png
AlexNet_topK_30,1,1109,NaN,bear,knife,NaN,knife8-bottle3.png
AlexNet_topK_30,1,1110,NaN,elephant,knife,NaN,knife8-car2.png
AlexNet_topK_30,1,1111,NaN,keyboard,knife,NaN,knife8-cat2.png
AlexNet_topK_30,1,1112,NaN,cat,knife,NaN,knife8-truck3.png
AlexNet_topK_30,1,1113,NaN,oven,knife,NaN,knife9-airplane2.png
AlexNet_topK_30,1,1114,NaN,oven,knife,NaN,knife9-bear3.png
AlexNet_topK_30,1,1115,NaN,chair,knife,NaN,knife9-bicycle1.png
AlexNet_topK_30,1,1116,NaN,cat,knife,NaN,knife9-bird1.png
AlexNet_topK_30,1,1117,NaN,truck,knife,NaN,knife9-boat1.png
AlexNet_topK_30,1,1118,NaN,boat,knife,NaN,knife9-bottle2.png
AlexNet_topK_30,1,1119,NaN,chair,knife,NaN,knife9-chair1.png
AlexNet_topK_30,1,1120,NaN,bear,knife,NaN,knife9-elephant2.png
AlexNet_topK_30,1,1121,NaN,clock,oven,NaN,oven1-bird3.png
AlexNet_topK_30,1,1122,NaN,chair,oven,NaN,oven1-boat3.png
AlexNet_topK_30,1,1123,NaN,cat,oven,NaN,oven1-cat1.png
AlexNet_topK_30,1,1124,NaN,chair,oven,NaN,oven1-clock3.png
AlexNet_topK_30,1,1125,NaN,bear,oven,NaN,oven1-dog3.png
AlexNet_topK_30,1,1126,NaN,bear,oven,NaN,oven10-airplane2.png
AlexNet_topK_30,1,1127,NaN,cat,oven,NaN,oven10-bear1.png
AlexNet_topK_30,1,1128,NaN,cat,oven,NaN,oven10-bicycle1.png
AlexNet_topK_30,1,1129,NaN,oven,oven,NaN,oven10-boat2.png
AlexNet_topK_30,1,1130,NaN,chair,oven,NaN,oven10-cat2.png
AlexNet_topK_30,1,1131,NaN,elephant,oven,NaN,oven10-oven3.png
AlexNet_topK_30,1,1132,NaN,chair,oven,NaN,oven10-truck2.png
AlexNet_topK_30,1,1133,NaN,chair,oven,NaN,oven2-bear3.png
AlexNet_topK_30,1,1134,NaN,knife,oven,NaN,oven2-bicycle1.png
AlexNet_topK_30,1,1135,NaN,cat,oven,NaN,oven2-bird2.png
AlexNet_topK_30,1,1136,NaN,oven,oven,NaN,oven2-boat3.png
AlexNet_topK_30,1,1137,NaN,cat,oven,NaN,oven2-bottle1.png
AlexNet_topK_30,1,1138,NaN,cat,oven,NaN,oven2-car1.png
AlexNet_topK_30,1,1139,NaN,airplane,oven,NaN,oven2-chair1.png
AlexNet_topK_30,1,1140,NaN,elephant,oven,NaN,oven2-dog3.png
AlexNet_topK_30,1,1141,NaN,chair,oven,NaN,oven2-oven3.png
AlexNet_topK_30,1,1142,NaN,chair,oven,NaN,oven2-truck3.png
AlexNet_topK_30,1,1143,NaN,chair,oven,NaN,oven3-airplane1.png
AlexNet_topK_30,1,1144,NaN,bear,oven,NaN,oven3-bear2.png
AlexNet_topK_30,1,1145,NaN,chair,oven,NaN,oven3-boat3.png
AlexNet_topK_30,1,1146,NaN,chair,oven,NaN,oven3-bottle3.png
AlexNet_topK_30,1,1147,NaN,chair,oven,NaN,oven3-car2.png
AlexNet_topK_30,1,1148,NaN,chair,oven,NaN,oven3-cat2.png
AlexNet_topK_30,1,1149,NaN,chair,oven,NaN,oven3-clock3.png
AlexNet_topK_30,1,1150,NaN,chair,oven,NaN,oven3-elephant3.png
AlexNet_topK_30,1,1151,NaN,knife,oven,NaN,oven3-knife1.png
AlexNet_topK_30,1,1152,NaN,chair,oven,NaN,oven3-truck1.png
AlexNet_topK_30,1,1153,NaN,cat,oven,NaN,oven4-bicycle2.png
AlexNet_topK_30,1,1154,NaN,clock,oven,NaN,oven4-bottle2.png
AlexNet_topK_30,1,1155,NaN,oven,oven,NaN,oven4-car1.png
AlexNet_topK_30,1,1156,NaN,knife,oven,NaN,oven4-chair1.png
AlexNet_topK_30,1,1157,NaN,chair,oven,NaN,oven4-clock2.png
AlexNet_topK_30,1,1158,NaN,elephant,oven,NaN,oven4-dog1.png
AlexNet_topK_30,1,1159,NaN,cat,oven,NaN,oven4-elephant3.png
AlexNet_topK_30,1,1160,NaN,elephant,oven,NaN,oven4-keyboard3.png
AlexNet_topK_30,1,1161,NaN,cat,oven,NaN,oven4-knife2.png
AlexNet_topK_30,1,1162,NaN,chair,oven,NaN,oven4-truck3.png
AlexNet_topK_30,1,1163,NaN,chair,oven,NaN,oven5-airplane1.png
AlexNet_topK_30,1,1164,NaN,knife,oven,NaN,oven5-bicycle1.png
AlexNet_topK_30,1,1165,NaN,boat,oven,NaN,oven5-bird1.png
AlexNet_topK_30,1,1166,NaN,bear,oven,NaN,oven5-bottle3.png
AlexNet_topK_30,1,1167,NaN,cat,oven,NaN,oven5-dog3.png
AlexNet_topK_30,1,1168,NaN,clock,oven,NaN,oven5-elephant1.png
AlexNet_topK_30,1,1169,NaN,chair,oven,NaN,oven5-keyboard2.png
AlexNet_topK_30,1,1170,NaN,chair,oven,NaN,oven6-airplane3.png
AlexNet_topK_30,1,1171,NaN,bear,oven,NaN,oven6-bear2.png
AlexNet_topK_30,1,1172,NaN,truck,oven,NaN,oven6-bicycle1.png
AlexNet_topK_30,1,1173,NaN,bear,oven,NaN,oven6-bird1.png
AlexNet_topK_30,1,1174,NaN,airplane,oven,NaN,oven6-chair3.png
AlexNet_topK_30,1,1175,NaN,knife,oven,NaN,oven6-elephant2.png
AlexNet_topK_30,1,1176,NaN,chair,oven,NaN,oven6-knife3.png
AlexNet_topK_30,1,1177,NaN,bear,oven,NaN,oven6-oven3.png
AlexNet_topK_30,1,1178,NaN,knife,oven,NaN,oven6-truck1.png
AlexNet_topK_30,1,1179,NaN,cat,oven,NaN,oven7-bottle1.png
AlexNet_topK_30,1,1180,NaN,bear,oven,NaN,oven7-car3.png
AlexNet_topK_30,1,1181,NaN,cat,oven,NaN,oven7-cat1.png
AlexNet_topK_30,1,1182,NaN,cat,oven,NaN,oven7-clock2.png
AlexNet_topK_30,1,1183,NaN,bear,oven,NaN,oven7-dog2.png
AlexNet_topK_30,1,1184,NaN,cat,oven,NaN,oven7-elephant1.png
AlexNet_topK_30,1,1185,NaN,bear,oven,NaN,oven7-keyboard1.png
AlexNet_topK_30,1,1186,NaN,chair,oven,NaN,oven7-oven1.png
AlexNet_topK_30,1,1187,NaN,elephant,oven,NaN,oven8-cat3.png
AlexNet_topK_30,1,1188,NaN,bear,oven,NaN,oven8-chair1.png
AlexNet_topK_30,1,1189,NaN,bear,oven,NaN,oven8-keyboard3.png
AlexNet_topK_30,1,1190,NaN,knife,oven,NaN,oven8-knife2.png
AlexNet_topK_30,1,1191,NaN,chair,oven,NaN,oven9-airplane2.png
AlexNet_topK_30,1,1192,NaN,bear,oven,NaN,oven9-bear2.png
AlexNet_topK_30,1,1193,NaN,knife,oven,NaN,oven9-bird3.png
AlexNet_topK_30,1,1194,NaN,cat,oven,NaN,oven9-boat2.png
AlexNet_topK_30,1,1195,NaN,cat,oven,NaN,oven9-car2.png
AlexNet_topK_30,1,1196,NaN,bird,oven,NaN,oven9-chair1.png
AlexNet_topK_30,1,1197,NaN,cat,oven,NaN,oven9-clock2.png
AlexNet_topK_30,1,1198,NaN,knife,oven,NaN,oven9-keyboard1.png
AlexNet_topK_30,1,1199,NaN,chair,oven,NaN,oven9-knife3.png
AlexNet_topK_30,1,1200,NaN,chair,oven,NaN,oven9-oven1.png
AlexNet_topK_30,1,1201,NaN,cat,truck,NaN,truck1-bear1.png
AlexNet_topK_30,1,1202,NaN,chair,truck,NaN,truck1-bicycle3.png
AlexNet_topK_30,1,1203,NaN,elephant,truck,NaN,truck1-bird1.png
AlexNet_topK_30,1,1204,NaN,chair,truck,NaN,truck1-car3.png
AlexNet_topK_30,1,1205,NaN,chair,truck,NaN,truck1-cat1.png
AlexNet_topK_30,1,1206,NaN,cat,truck,NaN,truck1-chair2.png
AlexNet_topK_30,1,1207,NaN,cat,truck,NaN,truck1-clock3.png
AlexNet_topK_30,1,1208,NaN,knife,truck,NaN,truck1-dog1.png
AlexNet_topK_30,1,1209,NaN,boat,truck,NaN,truck1-knife1.png
AlexNet_topK_30,1,1210,NaN,chair,truck,NaN,truck10-airplane1.png
AlexNet_topK_30,1,1211,NaN,boat,truck,NaN,truck10-bicycle1.png
AlexNet_topK_30,1,1212,NaN,knife,truck,NaN,truck10-car3.png
AlexNet_topK_30,1,1213,NaN,cat,truck,NaN,truck10-clock1.png
AlexNet_topK_30,1,1214,NaN,chair,truck,NaN,truck10-elephant3.png
AlexNet_topK_30,1,1215,NaN,chair,truck,NaN,truck10-truck3.png
AlexNet_topK_30,1,1216,NaN,cat,truck,NaN,truck2-airplane3.png
AlexNet_topK_30,1,1217,NaN,elephant,truck,NaN,truck2-bicycle2.png
AlexNet_topK_30,1,1218,NaN,bear,truck,NaN,truck2-bird2.png
AlexNet_topK_30,1,1219,NaN,bear,truck,NaN,truck2-boat3.png
AlexNet_topK_30,1,1220,NaN,bear,truck,NaN,truck2-bottle3.png
AlexNet_topK_30,1,1221,NaN,cat,truck,NaN,truck2-car3.png
AlexNet_topK_30,1,1222,NaN,bear,truck,NaN,truck2-chair1.png
AlexNet_topK_30,1,1223,NaN,knife,truck,NaN,truck2-clock1.png
AlexNet_topK_30,1,1224,NaN,cat,truck,NaN,truck2-elephant1.png
AlexNet_topK_30,1,1225,NaN,cat,truck,NaN,truck2-keyboard1.png
AlexNet_topK_30,1,1226,NaN,oven,truck,NaN,truck2-oven3.png
AlexNet_topK_30,1,1227,NaN,elephant,truck,NaN,truck3-bear3.png
AlexNet_topK_30,1,1228,NaN,cat,truck,NaN,truck3-bicycle1.png
AlexNet_topK_30,1,1229,NaN,bear,truck,NaN,truck3-bird2.png
AlexNet_topK_30,1,1230,NaN,boat,truck,NaN,truck3-car3.png
AlexNet_topK_30,1,1231,NaN,cat,truck,NaN,truck3-cat1.png
AlexNet_topK_30,1,1232,NaN,boat,truck,NaN,truck3-chair2.png
AlexNet_topK_30,1,1233,NaN,oven,truck,NaN,truck3-clock3.png
AlexNet_topK_30,1,1234,NaN,cat,truck,NaN,truck3-dog3.png
AlexNet_topK_30,1,1235,NaN,elephant,truck,NaN,truck3-keyboard3.png
AlexNet_topK_30,1,1236,NaN,chair,truck,NaN,truck3-knife2.png
AlexNet_topK_30,1,1237,NaN,elephant,truck,NaN,truck3-oven2.png
AlexNet_topK_30,1,1238,NaN,elephant,truck,NaN,truck4-airplane3.png
AlexNet_topK_30,1,1239,NaN,chair,truck,NaN,truck4-bear1.png
AlexNet_topK_30,1,1240,NaN,bear,truck,NaN,truck4-boat3.png
AlexNet_topK_30,1,1241,NaN,cat,truck,NaN,truck4-bottle2.png
AlexNet_topK_30,1,1242,NaN,elephant,truck,NaN,truck4-knife1.png
AlexNet_topK_30,1,1243,NaN,chair,truck,NaN,truck4-oven2.png
AlexNet_topK_30,1,1244,NaN,bottle,truck,NaN,truck5-airplane2.png
AlexNet_topK_30,1,1245,NaN,knife,truck,NaN,truck5-bird2.png
AlexNet_topK_30,1,1246,NaN,bear,truck,NaN,truck5-car1.png
AlexNet_topK_30,1,1247,NaN,elephant,truck,NaN,truck5-cat3.png
AlexNet_topK_30,1,1248,NaN,cat,truck,NaN,truck5-dog3.png
AlexNet_topK_30,1,1249,NaN,boat,truck,NaN,truck5-keyboard1.png
AlexNet_topK_30,1,1250,NaN,cat,truck,NaN,truck5-knife3.png
AlexNet_topK_30,1,1251,NaN,chair,truck,NaN,truck5-truck1.png
AlexNet_topK_30,1,1252,NaN,oven,truck,NaN,truck6-bear2.png
AlexNet_topK_30,1,1253,NaN,chair,truck,NaN,truck6-bicycle1.png
AlexNet_topK_30,1,1254,NaN,cat,truck,NaN,truck6-boat2.png
AlexNet_topK_30,1,1255,NaN,clock,truck,NaN,truck6-bottle3.png
AlexNet_topK_30,1,1256,NaN,bottle,truck,NaN,truck6-cat2.png
AlexNet_topK_30,1,1257,NaN,chair,truck,NaN,truck6-clock2.png
AlexNet_topK_30,1,1258,NaN,bottle,truck,NaN,truck6-dog2.png
AlexNet_topK_30,1,1259,NaN,cat,truck,NaN,truck6-knife2.png
AlexNet_topK_30,1,1260,NaN,chair,truck,NaN,truck6-oven3.png
AlexNet_topK_30,1,1261,NaN,elephant,truck,NaN,truck6-truck2.png
AlexNet_topK_30,1,1262,NaN,bear,truck,NaN,truck7-bear2.png
AlexNet_topK_30,1,1263,NaN,elephant,truck,NaN,truck7-bird2.png
AlexNet_topK_30,1,1264,NaN,keyboard,truck,NaN,truck7-boat1.png
AlexNet_topK_30,1,1265,NaN,boat,truck,NaN,truck7-chair2.png
AlexNet_topK_30,1,1266,NaN,cat,truck,NaN,truck7-elephant2.png
AlexNet_topK_30,1,1267,NaN,chair,truck,NaN,truck7-keyboard3.png
AlexNet_topK_30,1,1268,NaN,elephant,truck,NaN,truck7-oven2.png
AlexNet_topK_30,1,1269,NaN,elephant,truck,NaN,truck7-truck2.png
AlexNet_topK_30,1,1270,NaN,elephant,truck,NaN,truck8-bottle2.png
AlexNet_topK_30,1,1271,NaN,oven,truck,NaN,truck8-cat2.png
AlexNet_topK_30,1,1272,NaN,bear,truck,NaN,truck8-dog3.png
AlexNet_topK_30,1,1273,NaN,chair,truck,NaN,truck8-elephant1.png
AlexNet_topK_30,1,1274,NaN,chair,truck,NaN,truck8-keyboard2.png
AlexNet_topK_30,1,1275,NaN,chair,truck,NaN,truck9-airplane2.png
AlexNet_topK_30,1,1276,NaN,cat,truck,NaN,truck9-boat3.png
AlexNet_topK_30,1,1277,NaN,elephant,truck,NaN,truck9-bottle2.png
AlexNet_topK_30,1,1278,NaN,airplane,truck,NaN,truck9-chair3.png
AlexNet_topK_30,1,1279,NaN,chair,truck,NaN,truck9-elephant1.png
AlexNet_topK_30,1,1280,NaN,cat,truck,NaN,truck9-truck3.png
